File: Figure1_XRD/040.xy
# == pyFAI calibration ==
# Distance Sample to Detector: 0.115075 m
# PONI: 5.477e-03, 4.716e-03 m
# Rotations: 0.004686 0.005536 0.000000 rad
#
# == Fit2d calibration ==
# Distance Sample-beamCenter: 115.078 mm
# Center: x=55.690, y=81.516 pix
# Tilt: 0.416 deg  TiltPlanRot: 130.247 deg
#
# Detector Detector	 Spline= None	 PixelSize= 7.500e-05, 7.500e-05 m
#    Detector has a mask: False
#    Detector has a dark current: False
#    detector has a flat field: False
#
# Wavelength: 4.833e-11 m
# Mask applied: None
# Dark current applied: None
# Flat field applied: None
# Polarization factor: None
# Normalization factor: None
#
# 2th_deg	 I
1.13121  36.5196
1.16069  51.9457
1.19017  63.1009
1.21965  74.1766
1.24914  82.0201
1.27862  92.3084
1.3081  93.992
1.33758  99.2986
1.36706  103.994
1.39654  106.432
1.42603  108.446
1.45551  110.554
1.48499  113.223
1.51447  113.634
1.54395  116.023
1.57343  117.463
1.60291  118.384
1.6324  122.558
1.66188  124.721
1.69136  124.001
1.72084  126.418
1.75032  127.987
1.7798  128.502
1.80929  129.955
1.83877  131.841
1.86825  131.049
1.89773  131.301
1.92721  132.457
1.95669  133.692
1.98618  136.523
2.01566  138.271
2.04514  139.441
2.07462  139.622
2.1041  140.231
2.13358  142.054
2.16307  144.403
2.19255  144.48
2.22203  145.537
2.25151  145.861
2.28099  146.155
2.31047  145.927
2.33995  148.233
2.36944  148.827
2.39892  147.725
2.4284  148.486
2.45788  148.612
2.48736  148.19
2.51684  148.683
2.54633  148.187
2.57581  148.382
2.60529  148.215
2.63477  147.446
2.66425  148.342
2.69373  147.77
2.72322  147.588
2.7527  146.577
2.78218  147.332
2.81166  147.129
2.84114  146.135
2.87062  145.885
2.9001  146.018
2.92959  145.061
2.95907  143.941
2.98855  142.821
3.01803  143.293
3.04751  143.353
3.07699  143.037
3.10648  142.986
3.13596  143.134
3.16544  143.038
3.19492  143.521
3.2244  143.531
3.25388  143.609
3.28337  143.039
3.31285  142.63
3.34233  142.991
3.37181  143.023
3.40129  143.249
3.43077  142.793
3.46025  142.016
3.48974  141.206
3.51922  138.942
3.5487  136.557
3.57818  135.823
3.60766  135.484
3.63714  135.587
3.66663  136.676
3.69611  139.68
3.72559  144.344
3.75507  145.423
3.78455  144.269
3.81403  142.989
3.84352  141.546
3.873  139.243
3.90248  138.63
3.93196  137.449
3.96144  136.209
3.99092  136.088
4.0204  134.912
4.04989  133.899
4.07937  133.769
4.10885  133.747
4.13833  132.848
4.16781  132.325
4.19729  130.542
4.22678  130.136
4.25626  129.613
4.28574  129.433
4.31522  128.984
4.3447  127.909
4.37418  127.366
4.40367  127.648
4.43315  126.741
4.46263  125.766
4.49211  125.56
4.52159  125.381
4.55107  125.261
4.58055  125.534
4.61004  124.778
4.63952  124.979
4.669  124.808
4.69848  125.313
4.72796  123.198
4.75744  123.956
4.78693  123.569
4.81641  122.681
4.84589  122.714
4.87537  122.685
4.90485  121.94
4.93433  120.933
4.96382  121.189
4.9933  120.995
5.02278  120.169
5.05226  118.602
5.08174  119.155
5.11122  119.201
5.14071  119.116
5.17019  119.197
5.19967  118.277
5.22915  118.021
5.25863  118.617
5.28811  119.087
5.31759  118.726
5.34708  118.484
5.37656  118.665
5.40604  117.316
5.43552  117.601
5.465  117.077
5.49448  117.276
5.52397  117.109
5.55345  117.084
5.58293  118.319
5.61241  118.229
5.64189  118.509
5.67137  118.648
5.70086  117.862
5.73034  117.028
5.75982  117.361
5.7893  117.39
5.81878  116.829
5.84826  115.853
5.87774  116.474
5.90723  116.946
5.93671  117.426
5.96619  117.707
5.99567  117.296
6.02515  117.036
6.05463  117.206
6.08412  117.524
6.1136  117.082
6.14308  116.226
6.17256  116.608
6.20204  116.403
6.23152  117.306
6.26101  118.161
6.29049  118.172
6.31997  117.397
6.34945  116.969
6.37893  116.829
6.40841  116.67
6.43789  117.056
6.46738  117.258
6.49686  117.692
6.52634  118.872
6.55582  118.841
6.5853  117.856
6.61478  118.007
6.64427  118.274
6.67375  118.17
6.70323  118.069
6.73271  118.679
6.76219  118.401
6.79167  118.626
6.82116  118.121
6.85064  117.934
6.88012  118.805
6.9096  118.996
6.93908  119.339
6.96856  118.787
6.99804  118.974
7.02753  118.947
7.05701  119.224
7.08649  119.177
7.11597  118.468
7.14545  118.716
7.17493  119.426
7.20442  119.701
7.2339  118.963
7.26338  118.832
7.29286  119.753
7.32234  119.64
7.35182  120.406
7.38131  120.154
7.41079  120.776
7.44027  120.251
7.46975  121.161
7.49923  121.094
7.52871  121.658
7.55819  122.412
7.58768  122.745
7.61716  122.813
7.64664  122.621
7.67612  124.182
7.7056  123.938
7.73508  124.533
7.76457  126.167
7.79405  128.378
7.82353  131.194
7.85301  133.932
7.88249  135.932
7.91197  136.434
7.94146  134.867
7.97094  132.314
8.00042  130.632
8.0299  129.953
8.05938  129.555
8.08886  131.913
8.11835  135.841
8.14783  139.77
8.17731  142.197
8.20679  142.816
8.23627  147.784
8.26575  155.436
8.29523  162.173
8.32472  164.232
8.3542  160.162
8.38368  151.407
8.41316  143.529
8.44264  138.968
8.47212  136.333
8.50161  134.822
8.53109  135.149
8.56057  136.034
8.59005  134.64
8.61953  135.944
8.64901  135.943
8.6785  136.46
8.70798  137.373
8.73746  138.3
8.76694  138.235
8.79642  139.168
8.8259  140.529
8.85538  142.436
8.88487  143.744
8.91435  144.457
8.94383  145.3
8.97331  146.333
9.00279  146.246
9.03227  147.246
9.06176  148.533
9.09124  149.139
9.12072  148.501
9.1502  149.201
9.17968  149.863
9.20916  151.278
9.23865  152.03
9.26813  153.372
9.29761  153.602
9.32709  154.344
9.35657  155.294
9.38605  157.013
9.41553  159.057
9.44502  159.834
9.4745  161.482
9.50398  162.993
9.53346  168.631
9.56294  178.341
9.59242  190.99
9.62191  208.344
9.65139  215.329
9.68087  198.812
9.71035  177.842
9.73983  166.451
9.76931  164.528
9.7988  164.061
9.82828  166.292
9.85776  171.954
9.88724  178.594
9.91672  183.87
9.9462  186.148
9.97568  182.229
10.0052  176.93
10.0346  170.211
10.0641  164.814
10.0936  160.184
10.1231  156.587
10.1526  154.722
10.1821  153.746
10.2115  152.481
10.241  153.39
10.2705  155.051
10.3  154.321
10.3295  153.488
10.3589  152.624
10.3884  151.593
10.4179  150.972
10.4474  150.651
10.4769  149.887
10.5064  148.795
10.5358  148.789
10.5653  149.014
10.5948  148.03
10.6243  148.095
10.6538  149.807
10.6832  149.969
10.7127  148.841
10.7422  149.519
10.7717  149.378
10.8012  149.801
10.8307  150.94
10.8601  151.618
10.8896  151.211
10.9191  152.434
10.9486  153.391
10.9781  154.226
11.0075  153.585
11.037  153.08
11.0665  153.879
11.096  153.833
11.1255  153.091
11.1549  152.675
11.1844  152.871
11.2139  152.652
11.2434  152.589
11.2729  151.748
11.3024  152.982
11.3318  153.877
11.3613  153.957
11.3908  153.567
11.4203  154.129
11.4498  154.71
11.4792  155.402
11.5087  156.728
11.5382  158.718
11.5677  161.401
11.5972  165.437
11.6267  170.914
11.6561  176.986
11.6856  185.305
11.7151  189.615
11.7446  185.602
11.7741  176.601
11.8035  167.994
11.833  163.755
11.8625  160.853
11.892  159.987
11.9215  160.64
11.951  159.968
11.9804  159.452
12.0099  159.659
12.0394  160.248
12.0689  159.878
12.0984  160.487
12.1278  161.224
12.1573  161.386
12.1868  161.375
12.2163  162.013
12.2458  163.185
12.2752  162.965
12.3047  164.326
12.3342  165.478
12.3637  165.748
12.3932  167.265
12.4227  168.886
12.4521  169.368
12.4816  169.461
12.5111  169.69
12.5406  169.371
12.5701  168.279
12.5995  167.847
12.629  166.43
12.6585  165.893
12.688  165.17
12.7175  164.904
12.747  164.396
12.7764  163.835
12.8059  164.717
12.8354  163.708
12.8649  162.969
12.8944  163.535
12.9238  164.055
12.9533  164.064
12.9828  164.754
13.0123  165.446
13.0418  167.189
13.0713  169.707
13.1007  171.746
13.1302  174.529
13.1597  179.776
13.1892  186.249
13.2187  194.443
13.2481  200.651
13.2776  201.099
13.3071  196.349
13.3366  187.152
13.3661  180.481
13.3955  174.989
13.425  170.768
13.4545  169.421
13.484  169.835
13.5135  171.583
13.543  173.913
13.5724  176.354
13.6019  176.647
13.6314  176.169
13.6609  175.577
13.6904  174.33
13.7198  173.593
13.7493  172.797
13.7788  171.165
13.8083  169.423
13.8378  169.692
13.8673  169.736
13.8967  170.598
13.9262  172.179
13.9557  174.203
13.9852  178.33
14.0147  184.794
14.0441  191.75
14.0736  199.468
14.1031  201.051
14.1326  195.087
14.1621  186.888
14.1916  179.367
14.221  174.795
14.2505  172.809
14.28  170.397
14.3095  167.948
14.339  166.686
14.3684  165.493
14.3979  165.152
14.4274  165.29
14.4569  164.582
14.4864  165.436
14.5158  167.84
14.5453  169.367
14.5748  170.739
14.6043  172.038
14.6338  172.794
14.6633  171.796
14.6927  170.497
14.7222  169.917
14.7517  168.744
14.7812  168.099
14.8107  168.467
14.8401  167.221
14.8696  165.813
14.8991  165.065
14.9286  164.383
14.9581  163.165
14.9876  163.44
15.017  162.944
15.0465  162.254
15.076  161.829
15.1055  162.425
15.135  162.527
15.1644  162.996
15.1939  162.388
15.2234  162.408
15.2529  161.652
15.2824  162.061
15.3119  162.124
15.3413  162.35
15.3708  163.312
15.4003  162.892
15.4298  162.966
15.4593  163.305
15.4887  163.43
15.5182  162.974
15.5477  163.171
15.5772  162.891
15.6067  163.717
15.6361  164.29
15.6656  164.082
15.6951  163.623
15.7246  163.323
15.7541  163.667
15.7836  164.533
15.813  164.378
15.8425  164.156
15.872  163.627
15.9015  164.933
15.931  164.607
15.9604  164.076
15.9899  163.983
16.0194  165.189
16.0489  166.049
16.0784  166.071
16.1079  165.666
16.1373  165.481
16.1668  165.736
16.1963  166.727
16.2258  166.931
16.2553  167.863
16.2847  169.008
16.3142  169.361
16.3437  171.056
16.3732  172.352
16.4027  172.695
16.4322  172.063
16.4616  170.502
16.4911  169.025
16.5206  168.37
16.5501  169.765
16.5796  170.053
16.609  169.985
16.6385  170.328
16.668  170.448
16.6975  170.788
16.727  170.524
16.7564  171.135
16.7859  171.575
16.8154  170.886
16.8449  171.305
16.8744  169.998
16.9039  169.796
16.9333  168.538
16.9628  168.075
16.9923  169.308
17.0218  170.003
17.0513  171.023
17.0807  171.566
17.1102  172.084
17.1397  172.702
17.1692  174.643
17.1987  175.414
17.2282  176.096
17.2576  176.633
17.2871  176.575
17.3166  175.993
17.3461  174.731
17.3756  173.44
17.405  172.576
17.4345  172.508
17.464  171.515
17.4935  171.1
17.523  171.338
17.5525  171.191
17.5819  170.445
17.6114  170.972
17.6409  170.96
17.6704  171.088
17.6999  169.886
17.7293  169.014
17.7588  168.966
17.7883  168.621
17.8178  168.6
17.8473  169.484
17.8767  169.148
17.9062  168.619
17.9357  169.065
17.9652  168.903
17.9947  167.536
18.0242  166.726
18.0536  166.862
18.0831  166.955
18.1126  166.952
18.1421  166.965
18.1716  166.682
18.201  166.856
18.2305  167.132
18.26  166.806
18.2895  166.833
18.319  166.331
18.3485  166.799
18.3779  166.956
18.4074  166.978
18.4369  166.907
18.4664  166.37
18.4959  166.689
18.5253  167.25
18.5548  166.923
18.5843  167.117
18.6138  167.419
18.6433  166.99
18.6728  166.204
18.7022  166.027
18.7317  167.232
18.7612  166.521
18.7907  166.532
18.8202  167.389
18.8496  166.857
18.8791  166.049
18.9086  167.029
18.9381  167.267
18.9676  166.867
18.997  166.749
19.0265  166.511
19.056  166.386
19.0855  166.797
19.115  166.9
19.1445  167.14
19.1739  167.746
19.2034  167.154
19.2329  167.319
19.2624  168.467
19.2919  167.703
19.3213  169.145
19.3508  169.857
19.3803  170.163
19.4098  168.832
19.4393  167.718
19.4688  167.217
19.4982  167.046
19.5277  165.701
19.5572  165.564
19.5867  166.196
19.6162  164.601
19.6456  164.149
19.6751  164.082
19.7046  164.822
19.7341  166.123
19.7636  165.393
19.7931  166.305
19.8225  166.613
19.852  166.487
19.8815  166.913
19.911  168.246
19.9405  168.281
19.9699  168.155
19.9994  167.391
20.0289  167.617
20.0584  167.252
20.0879  168.589
20.1173  169.33
20.1468  171.385
20.1763  171.926
20.2058  174.974
20.2353  177.854
20.2648  180.884
20.2942  181.96
20.3237  181.941
20.3532  179.579
20.3827  175.702
20.4122  172.637
20.4416  170.547
20.4711  168.83
20.5006  168.571
20.5301  168.051
20.5596  167.27
20.5891  167.773
20.6185  168.816
20.648  169.825
20.6775  168.871
20.707  168.624
20.7365  169.392
20.7659  168.66
20.7954  167.644
20.8249  167.301
20.8544  168.29
20.8839  168.646
20.9134  169.389
20.9428  169.262
20.9723  169.676
21.0018  169.433
21.0313  168.448
21.0608  168.154
21.0902  168.873
21.1197  169.004
21.1492  168.915
21.1787  168.027
21.2082  167.435
21.2377  167.175
21.2671  167.797
21.2966  167.007
21.3261  167.239
21.3556  167.347
21.3851  167.671
21.4145  168.225
21.444  168.776
21.4735  169.508
21.503  170.572
21.5325  172.139
21.5619  173.247
21.5914  175.029
21.6209  177.243
21.6504  177.101
21.6799  178.018
21.7094  176.742
21.7388  173.326
21.7683  172.188
21.7978  171.132
21.8273  170.777
21.8568  171.36
21.8862  170.8
21.9157  170.331
21.9452  171.795
21.9747  171.584
22.0042  171.112
22.0337  171.97
22.0631  172.101
22.0926  172.228
22.1221  173.937
22.1516  174.182
22.1811  174.421
22.2105  175.522
22.24  177.451
22.2695  179.421
22.299  181.954
22.3285  184.135
22.358  183.878
22.3874  183.187
22.4169  182.308
22.4464  179.321
22.4759  178.291
22.5054  176.277
22.5348  175.85
22.5643  176.117
22.5938  174.462
22.6233  173.89
22.6528  173.997
22.6822  173.361
22.7117  173.041
22.7412  173.128
22.7707  172.076
22.8002  172.827
22.8297  172.504
22.8591  172.485
22.8886  172.281
22.9181  172.217
22.9476  171.301
22.9771  170.657
23.0065  170.233
23.036  170.491
23.0655  171.944
23.095  169.948
23.1245  170.782
23.154  170.727
23.1834  169.617
23.2129  171.1
23.2424  170.804
23.2719  170.494
23.3014  170.822
23.3308  170.455
23.3603  171.081
23.3898  170.804
23.4193  171.676
23.4488  171.7
23.4783  173.194
23.5077  173.744
23.5372  174.129
23.5667  173.767
23.5962  173.117
23.6257  172.765
23.6551  173.43
23.6846  173.551
23.7141  174.385
23.7436  175.597
23.7731  175.051
23.8025  174.675
23.832  176.4
23.8615  176.672
23.891  176.491
23.9205  177.308
23.95  177.655
23.9794  175.466
24.0089  175.982
24.0384  176.034
24.0679  175.99
24.0974  176.354
24.1268  175.955
24.1563  177.003
24.1858  179.216
24.2153  179.704
24.2448  181.488
24.2743  182.565
24.3037  181.971
24.3332  183.188
24.3627  183.723
24.3922  182.288
24.4217  182.745
24.4511  182.659
24.4806  183.838
24.5101  184.444
24.5396  182.492
24.5691  180.392
24.5986  178.951
24.628  178.023
24.6575  176.748
24.687  176.498
24.7165  175.307
24.746  176.107
24.7754  175.567
24.8049  175.501
24.8344  175.668
24.8639  174.358
24.8934  173.277
24.9228  172.242
24.9523  172.139
24.9818  171.998
25.0113  171.547
25.0408  170.522
25.0703  172.243
25.0997  171.104
25.1292  170.314
25.1587  170.578
25.1882  170.8
25.2177  170.035
25.2471  169.704
25.2766  169.241
25.3061  169.384
25.3356  169.467
25.3651  169.275
25.3946  169.657
25.424  169.089
25.4535  168.57
25.483  169.724
25.5125  168.147
25.542  168.477
25.5714  168.333
25.6009  167.516
25.6304  168.29
25.6599  168.565
25.6894  168.632
25.7189  167.794
25.7483  167.194
25.7778  167.5
25.8073  167.785
25.8368  167.37
25.8663  166.933
25.8957  166.729
25.9252  165.834
25.9547  167.264
25.9842  165.496
26.0137  167.362
26.0431  167.768
26.0726  167.229
26.1021  166.871
26.1316  167.348
26.1611  167.314
26.1906  165.863
26.22  166.899
26.2495  168.049
26.279  167.268
26.3085  167
26.338  167.621
26.3674  165.85
26.3969  166.175
26.4264  165.853
26.4559  167.703
26.4854  166.759
26.5149  166.603
26.5443  167.909
26.5738  166.855
26.6033  166.344
26.6328  166.341
26.6623  166.289
26.6917  166.791
26.7212  165.557
26.7507  167.095
26.7802  166.731
26.8097  166.067
26.8392  165.561
26.8686  165.707
26.8981  165.667
26.9276  165.732
26.9571  165.44
26.9866  165.76
27.016  164.869
27.0455  163.797
27.075  165.187
27.1045  164.066
27.134  164.438
27.1634  164.714
27.1929  163.549
27.2224  162.938
27.2519  164.808
27.2814  165.245
27.3109  164.015
27.3403  165.048
27.3698  164.682
27.3993  165.35
27.4288  164.237
27.4583  163.7
27.4877  163.387
27.5172  162.995
27.5467  163.158
27.5762  163.897
27.6057  163.738
27.6352  163.758
27.6646  163.027
27.6941  163.265
27.7236  162.723
27.7531  163.275
27.7826  163.35
27.812  163.573
27.8415  162.551
27.871  163.148
27.9005  163.755
27.93  164.006
27.9595  163.201
27.9889  164.202
28.0184  163.547
28.0479  163.828
28.0774  163.156
28.1069  162.486
28.1363  162.881
28.1658  163.853
28.1953  163.478
28.2248  163.795
28.2543  164.662
28.2837  164.547
28.3132  164.605
28.3427  164.24
28.3722  164.915
28.4017  164.273
28.4312  164.307
28.4606  164.096
28.4901  163.062
28.5196  162.743
28.5491  162.653
28.5786  162.508
28.608  161.552
28.6375  161.837
28.667  161.9
28.6965  161.689
28.726  161.78
28.7555  161.815
28.7849  161.926
28.8144  161.37
28.8439  161.127
28.8734  160.918
28.9029  161.289
28.9323  161.098
28.9618  160.714
28.9913  161.845
29.0208  160.065
29.0503  161
29.0798  161.077
29.1092  160.609
29.1387  160.334
29.1682  160.119
29.1977  160.915
29.2272  161.517
29.2566  160.294
29.2861  160.625
29.3156  160.88
29.3451  161.082
29.3746  161.096
29.404  160.208
29.4335  161.654
29.463  160.364
29.4925  160.513
29.522  161.201
29.5515  160.226
29.5809  161.369
29.6104  160.827
29.6399  159.909
29.6694  160.041
29.6989  159.993
29.7283  159.876
29.7578  158.416
29.7873  159.048
29.8168  158.695
29.8463  158.826
29.8758  156.738
29.9052  156.778
29.9347  154.367
29.9642  153.621
29.9937  152.842
30.0232  151.843
30.0526  150.971
30.0821  149.561
30.1116  147.978
30.1411  145.449
30.1706  143.387
30.2001  140.794
30.2295  136.259
30.259  132.547
30.2885  129.902
30.318  126.984
30.3475  124.381
30.3769  122.294
30.4064  120.22
30.4359  119.494
30.4654  117.259
30.4949  115.888
30.5243  114.835
30.5538  111.785
30.5833  110.402
30.6128  108.883
30.6423  107.282
30.6718  105.234
30.7012  103.133
30.7307  102.146
30.7602  100.732
30.7897  98.0009
30.8192  96.4459
30.8486  95.0043
30.8781  91.845
30.9076  90.914
30.9371  89.3781
30.9666  87.7707
30.9961  85.4862
31.0255  83.3971
31.055  81.7836
31.0845  80.1236
31.114  78.1717
31.1435  77.4684
31.1729  74.989
31.2024  73.4772
31.2319  71.6288
31.2614  70.4212
31.2909  67.9855
31.3204  66.6783
31.3498  65.0742
31.3793  63.3827
31.4088  62.5551
31.4383  61.1589
31.4678  60.0623
31.4972  59.3507
31.5267  57.4264
31.5562  56.2985
31.5857  56.1388
31.6152  54.762
31.6446  54.5237
31.6741  53.6504
31.7036  52.9652
31.7331  51.4333
31.7626  52.157
31.7921  50.6294
31.8215  50.7029
31.851  49.682
31.8805  49.5513
31.91  50.1614
31.9395  49.57
31.9689  48.519
31.9984  49.2134
32.0279  46.1911
32.0574  48.6256
32.0869  48.8724