File: Figure1_XRD/045.xy
# == pyFAI calibration ==
# Distance Sample to Detector: 0.115075 m
# PONI: 5.477e-03, 4.716e-03 m
# Rotations: 0.004686 0.005536 0.000000 rad
#
# == Fit2d calibration ==
# Distance Sample-beamCenter: 115.078 mm
# Center: x=55.690, y=81.516 pix
# Tilt: 0.416 deg  TiltPlanRot: 130.247 deg
#
# Detector Detector	 Spline= None	 PixelSize= 7.500e-05, 7.500e-05 m
#    Detector has a mask: False
#    Detector has a dark current: False
#    detector has a flat field: False
#
# Wavelength: 4.833e-11 m
# Mask applied: None
# Dark current applied: None
# Flat field applied: None
# Polarization factor: None
# Normalization factor: None
#
# 2th_deg	 I
1.13121  35.7238
1.16069  49.6839
1.19017  61.9492
1.21965  73.6864
1.24914  79.5642
1.27862  88.925
1.3081  90.9473
1.33758  96.0602
1.36706  102.535
1.39654  105.982
1.42603  108.602
1.45551  108.912
1.48499  110.936
1.51447  112.475
1.54395  114.433
1.57343  117.482
1.60291  119.4
1.6324  120.415
1.66188  123.352
1.69136  122.347
1.72084  125.018
1.75032  127.166
1.7798  128.208
1.80929  128.24
1.83877  129.259
1.86825  131.097
1.89773  132.854
1.92721  132.562
1.95669  133.402
1.98618  135.017
2.01566  136.209
2.04514  138.947
2.07462  140.792
2.1041  140.835
2.13358  141.298
2.16307  142.944
2.19255  143.338
2.22203  145.373
2.25151  146.026
2.28099  144.977
2.31047  144.94
2.33995  146.016
2.36944  147.099
2.39892  147.704
2.4284  149.002
2.45788  148.611
2.48736  147.814
2.51684  149.177
2.54633  149.728
2.57581  147.688
2.60529  147.5
2.63477  147.78
2.66425  148.263
2.69373  147.226
2.72322  145.931
2.7527  147.594
2.78218  146.37
2.81166  145.561
2.84114  146.207
2.87062  146.456
2.9001  146.22
2.92959  146.045
2.95907  145.025
2.98855  144.702
3.01803  144.317
3.04751  143.968
3.07699  145.063
3.10648  144.566
3.13596  143.509
3.16544  142.74
3.19492  143.815
3.2244  143.647
3.25388  143.786
3.28337  143.228
3.31285  143.658
3.34233  143.828
3.37181  143.683
3.40129  142.198
3.43077  140.944
3.46025  140.807
3.48974  140.519
3.51922  140.135
3.5487  138.64
3.57818  136.373
3.60766  136.852
3.63714  137.47
3.66663  136.583
3.69611  137.158
3.72559  138.152
3.75507  137.524
3.78455  137.342
3.81403  138.064
3.84352  138.013
3.873  138.956
3.90248  139.13
3.93196  137.987
3.96144  137.634
3.99092  136.739
4.0204  135.483
4.04989  134.923
4.07937  134.418
4.10885  134.337
4.13833  133.155
4.16781  132.251
4.19729  133.01
4.22678  132.164
4.25626  131.476
4.28574  130.309
4.31522  129.362
4.3447  128.702
4.37418  127.885
4.40367  127.74
4.43315  126.879
4.46263  127.392
4.49211  126.702
4.52159  125.108
4.55107  125.54
4.58055  125.781
4.61004  126.017
4.63952  125.326
4.669  124.643
4.69848  124.65
4.72796  124.274
4.75744  125.153
4.78693  124.937
4.81641  123.224
4.84589  122.569
4.87537  121.748
4.90485  121.856
4.93433  122.675
4.96382  122.276
4.9933  121.576
5.02278  120.567
5.05226  121.166
5.08174  121.028
5.11122  119.651
5.14071  119.963
5.17019  120.31
5.19967  119.36
5.22915  119.016
5.25863  118.23
5.28811  119.046
5.31759  118.776
5.34708  118.298
5.37656  117.617
5.40604  117.858
5.43552  117.35
5.465  117.695
5.49448  118.219
5.52397  118.45
5.55345  117.753
5.58293  116.878
5.61241  118.063
5.64189  117.884
5.67137  118.208
5.70086  119.658
5.73034  119.544
5.75982  118.71
5.7893  117.759
5.81878  116.837
5.84826  116.287
5.87774  116.235
5.90723  116.312
5.93671  116.502
5.96619  116.777
5.99567  116.51
6.02515  115.741
6.05463  116.699
6.08412  117.121
6.1136  116.858
6.14308  117.086
6.17256  116.557
6.20204  117.196
6.23152  117.687
6.26101  117.734
6.29049  117.46
6.31997  117.446
6.34945  117.308
6.37893  118.168
6.40841  117.783
6.43789  118.719
6.46738  119.224
6.49686  118.155
6.52634  118.124
6.55582  118.862
6.5853  118.742
6.61478  118.792
6.64427  118.89
6.67375  118.604
6.70323  118.454
6.73271  118.473
6.76219  119.093
6.79167  119.093
6.82116  119.081
6.85064  119.374
6.88012  118.697
6.9096  118.209
6.93908  119.909
6.96856  119.552
6.99804  119.495
7.02753  119.325
7.05701  120.382
7.08649  120.275
7.11597  119.084
7.14545  119.718
7.17493  120.055
7.20442  119.681
7.2339  120.009
7.26338  120.747
7.29286  120.669
7.32234  120.387
7.35182  120.134
7.38131  120.657
7.41079  121.752
7.44027  121.177
7.46975  121.128
7.49923  121.452
7.52871  122.096
7.55819  121.979
7.58768  121.999
7.61716  122.097
7.64664  122.261
7.67612  123.398
7.7056  122.911
7.73508  123.512
7.76457  123.758
7.79405  123.798
7.82353  124.538
7.85301  125.424
7.88249  126.544
7.91197  127.171
7.94146  128.443
7.97094  130.304
8.00042  132.226
8.0299  135.516
8.05938  138.062
8.08886  138.271
8.11835  137.689
8.14783  137.35
8.17731  137.875
8.20679  139.121
8.23627  141.383
8.26575  144.973
8.29523  152.528
8.32472  161.475
8.3542  170.867
8.38368  175.033
8.41316  168.327
8.44264  157.553
8.47212  148.669
8.50161  142.517
8.53109  141.863
8.56057  140.684
8.59005  139.086
8.61953  138.602
8.64901  137.892
8.6785  137.513
8.70798  137.716
8.73746  137.973
8.76694  137.946
8.79642  138.927
8.8259  139.915
8.85538  141.694
8.88487  143.352
8.91435  144.186
8.94383  145.783
8.97331  146.494
9.00279  145.932
9.03227  146.662
9.06176  147.329
9.09124  147.55
9.12072  148.788
9.1502  147.77
9.17968  149.169
9.20916  149.992
9.23865  151.465
9.26813  152.237
9.29761  152.433
9.32709  152.712
9.35657  153.968
9.38605  155.086
9.41553  155.652
9.44502  156.749
9.4745  156.767
9.50398  157.231
9.53346  158.011
9.56294  159.934
9.59242  161.594
9.62191  162.993
9.65139  168.141
9.68087  173.321
9.71035  182.585
9.73983  197.742
9.76931  208.529
9.7988  201.505
9.82828  184.651
9.85776  174.328
9.88724  170.484
9.91672  171.302
9.9462  177.184
9.97568  182.715
10.0052  186.016
10.0346  187.028
10.0641  182.342
10.0936  175.662
10.1231  169.49
10.1526  164.666
10.1821  159.131
10.2115  157.265
10.241  160.094
10.2705  161.144
10.3  159.426
10.3295  156.768
10.3589  155.352
10.3884  154.082
10.4179  153.195
10.4474  151.657
10.4769  150.739
10.5064  149.912
10.5358  149.438
10.5653  148.83
10.5948  147.981
10.6243  147.657
10.6538  147.183
10.6832  147.896
10.7127  148.906
10.7422  148.464
10.7717  147.399
10.8012  147.827
10.8307  148.789
10.8601  148.856
10.8896  148.672
10.9191  148.952
10.9486  149.368
10.9781  150.497
11.0075  151.842
11.037  151.627
11.0665  152.177
11.096  152.561
11.1255  152.779
11.1549  153.154
11.1844  152.357
11.2139  152.023
11.2434  151.657
11.2729  150.405
11.3024  151.052
11.3318  150.887
11.3613  151.51
11.3908  151.992
11.4203  152.193
11.4498  152.304
11.4792  153.353
11.5087  154.674
11.5382  156.312
11.5677  159.228
11.5972  162.554
11.6267  168.266
11.6561  176.955
11.6856  186.044
11.7151  195.013
11.7446  193.56
11.7741  180.647
11.8035  169.947
11.833  163.668
11.8625  160.123
11.892  158.936
11.9215  158.36
11.951  158.326
11.9804  159.272
12.0099  158.978
12.0394  159.947
12.0689  160.155
12.0984  161.071
12.1278  161.77
12.1573  162.754
12.1868  163.012
12.2163  163.332
12.2458  164.826
12.2752  165.332
12.3047  165.078
12.3342  164.624
12.3637  166.623
12.3932  167.74
12.4227  167.897
12.4521  169.72
12.4816  171.966
12.5111  173.766
12.5406  174.671
12.5701  175.465
12.5995  175.724
12.629  174.762
12.6585  174.207
12.688  173.672
12.7175  173.378
12.747  172.261
12.7764  171.993
12.8059  172.357
12.8354  171.851
12.8649  171.745
12.8944  171.641
12.9238  170.41
12.9533  171.073
12.9828  171.753
13.0123  172.537
13.0418  172.795
13.0713  174.764
13.1007  177.347
13.1302  180.413
13.1597  185.444
13.1892  192.306
13.2187  201.258
13.2481  209.5
13.2776  212.801
13.3071  208.86
13.3366  199.694
13.3661  189.687
13.3955  182.26
13.425  177.25
13.4545  173.76
13.484  171.976
13.5135  171.587
13.543  172.277
13.5724  174.394
13.6019  177.616
13.6314  179.5
13.6609  179.849
13.6904  178.55
13.7198  176.701
13.7493  174.297
13.7788  172.099
13.8083  171.724
13.8378  172.705
13.8673  172.731
13.8967  173.641
13.9262  175.122
13.9557  176.149
13.9852  176.982
14.0147  179.965
14.0441  181.937
14.0736  183.365
14.1031  186.608
14.1326  193.818
14.1621  202.432
14.1916  206.47
14.221  206.578
14.2505  199.637
14.28  188.59
14.3095  181.17
14.339  178.411
14.3684  176.007
14.3979  174.234
14.4274  170.978
14.4569  169.011
14.4864  168.198
14.5158  167.879
14.5453  168.464
14.5748  168.139
14.6043  169.271
14.6338  171.152
14.6633  172.471
14.6927  172.725
14.7222  173.213
14.7517  173.094
14.7812  171.859
14.8107  169.836
14.8401  167.936
14.8696  167.544
14.8991  167.069
14.9286  167.564
14.9581  167.798
14.9876  168.261
15.017  168.247
15.0465  167.683
15.076  168.451
15.1055  167.968
15.135  167.423
15.1644  166.494
15.1939  166.11
15.2234  165.714
15.2529  164.732
15.2824  163.439
15.3119  164.533
15.3413  164.571
15.3708  164.409
15.4003  163.792
15.4298  163.829
15.4593  164.922
15.4887  164.937
15.5182  163.847
15.5477  163.993
15.5772  164.396
15.6067  164.74
15.6361  164.75
15.6656  164.468
15.6951  164.57
15.7246  164.217
15.7541  164.117
15.7836  164.259
15.813  164.724
15.8425  164.213
15.872  164.264
15.9015  164.71
15.931  164.461
15.9604  164.867
15.9899  165.039
16.0194  165.418
16.0489  166.332
16.0784  166.282
16.1079  165.986
16.1373  166.766
16.1668  166.385
16.1963  166.246
16.2258  167.074
16.2553  167.449
16.2847  166.655
16.3142  167.493
16.3437  167.956
16.3732  169.554
16.4027  171.328
16.4322  174.044
16.4616  175.474
16.4911  176.517
16.5206  176.482
16.5501  174.578
16.5796  172.111
16.609  170.422
16.6385  168.979
16.668  168.596
16.6975  168.811
16.727  168.615
16.7564  168.038
16.7859  168.465
16.8154  168.77
16.8449  169.403
16.8744  168.318
16.9039  168.287
16.9333  169.255
16.9628  170.445
16.9923  170.799
17.0218  171.232
17.0513  172.588
17.0807  174.365
17.1102  175.66
17.1397  175.387
17.1692  175.482
17.1987  174.396
17.2282  174.542
17.2576  174.731
17.2871  174.805
17.3166  175.476
17.3461  176.665
17.3756  178.992
17.405  178.995
17.4345  177.61
17.464  175.917
17.4935  174.944
17.523  173.428
17.5525  172.804
17.5819  171.989
17.6114  171.223
17.6409  171.12
17.6704  171.067
17.6999  170.956
17.7293  170.518
17.7588  170.931
17.7883  170.99
17.8178  170.681
17.8473  170.159
17.8767  171.425
17.9062  170.409
17.9357  169.949
17.9652  170.07
17.9947  170.068
18.0242  170.389
18.0536  170.687
18.0831  170.131
18.1126  168.966
18.1421  169.071
18.1716  168.767
18.201  168.599
18.2305  167.493
18.26  167.489
18.2895  167.927
18.319  168.405
18.3485  168.377
18.3779  167.967
18.4074  167.414
18.4369  167.402
18.4664  167.627
18.4959  166.663
18.5253  166.744
18.5548  166.902
18.5843  166.755
18.6138  167.004
18.6433  166.805
18.6728  166.319
18.7022  166.809
18.7317  166.939
18.7612  166.172
18.7907  166.85
18.8202  165.741
18.8496  166.731
18.8791  167.108
18.9086  166.561
18.9381  167.257
18.9676  166.986
18.997  166.001
19.0265  166.482
19.056  167.072
19.0855  166.842
19.115  167.804
19.1445  167.447
19.1739  166.959
19.2034  167.876
19.2329  167.437
19.2624  167.024
19.2919  165.759
19.3213  166.651
19.3508  166.603
19.3803  167.525
19.4098  168.749
19.4393  168.276
19.4688  168.347
19.4982  169.111
19.5277  170.68
19.5572  171.423
19.5867  170.221
19.6162  169.658
19.6456  168.838
19.6751  167.414
19.7046  167.712
19.7341  167.173
19.7636  166.09
19.7931  166.052
19.8225  166.559
19.852  166.984
19.8815  166.76
19.911  167.904
19.9405  168.183
19.9699  168.022
19.9994  167.778
20.0289  168.634
20.0584  169.043
20.0879  169.172
20.1173  170.327
20.1468  171.725
20.1763  174.476
20.2058  176.604
20.2353  179.372
20.2648  183.563
20.2942  185.561
20.3237  185.686
20.3532  183.755
20.3827  179.803
20.4122  175.167
20.4416  172.664
20.4711  170.05
20.5006  168.908
20.5301  168.425
20.5596  168.397
20.5891  167.817
20.6185  166.604
20.648  166.654
20.6775  167.417
20.707  167.448
20.7365  168.158
20.7659  168.529
20.7954  168.836
20.8249  168.616
20.8544  169.733
20.8839  168.927
20.9134  169.759
20.9428  169.175
20.9723  168.429
21.0018  168.358
21.0313  168.124
21.0608  168.153
21.0902  167.145
21.1197  167.901
21.1492  168.398
21.1787  168.8
21.2082  168.679
21.2377  168.791
21.2671  169.659
21.2966  169.674
21.3261  169.698
21.3556  169.456
21.3851  170.594
21.4145  170.046
21.444  171.146
21.4735  171.414
21.503  171.587
21.5325  172.174
21.5619  172.273
21.5914  171.95
21.6209  171.834
21.6504  172.634
21.6799  173.337
21.7094  174.801
21.7388  175.023
21.7683  176.975
21.7978  177.77
21.8273  178.499
21.8568  176.539
21.8862  174.815
21.9157  173.513
21.9452  172.99
21.9747  172.179
22.0042  172.499
22.0337  172.445
22.0631  172.497
22.0926  172.557
22.1221  172.663
22.1516  172.602
22.1811  172.772
22.2105  173.216
22.24  174.779
22.2695  176.197
22.299  176.424
22.3285  179.583
22.358  179.903
22.3874  180.601
22.4169  181.005
22.4464  183.527
22.4759  185.293
22.5054  186.502
22.5348  185.324
22.5643  182.964
22.5938  180.746
22.6233  180.463
22.6528  179.118
22.6822  178.666
22.7117  177.216
22.7412  175.369
22.7707  174.996
22.8002  175.175
22.8297  173.288
22.8591  173.201
22.8886  173.232
22.9181  173.012
22.9476  174.386
22.9771  174.688
23.0065  174.931
23.036  173.774
23.0655  174.187
23.095  172.656
23.1245  172.712
23.154  172.774
23.1834  171.932
23.2129  172.174
23.2424  172.297
23.2719  172.774
23.3014  172.2
23.3308  172.949
23.3603  172.779
23.3898  172.751
23.4193  173.082
23.4488  174.286
23.4783  173.637
23.5077  174.294
23.5372  174.186
23.5667  174.532
23.5962  174.42
23.6257  173.425
23.6551  174.005
23.6846  175.417
23.7141  174.544
23.7436  174.272
23.7731  175.401
23.8025  176.092
23.832  176.199
23.8615  176.536
23.891  178.351
23.9205  177.42
23.95  178.593
23.9794  177.937
24.0089  177.032
24.0384  175.471
24.0679  175.998
24.0974  176.108
24.1268  176.714
24.1563  177.713
24.1858  179.209
24.2153  180.96
24.2448  181.36
24.2743  183.149
24.3037  184.604
24.3332  183.593
24.3627  182.495
24.3922  182.25
24.4217  180.695
24.4511  179.645
24.4806  178.145
24.5101  177.897
24.5396  178.038
24.5691  178.472
24.5986  180.37
24.628  181.691
24.6575  183.527
24.687  183.227
24.7165  182.918
24.746  182.453
24.7754  179.755
24.8049  177.938
24.8344  177.24
24.8639  177.746
24.8934  177.977
24.9228  176.968
24.9523  177.786
24.9818  178.224
25.0113  177.251
25.0408  175.415
25.0703  174.967
25.0997  174.379
25.1292  174.127
25.1587  173.251
25.1882  173.82
25.2177  172.983
25.2471  172.092
25.2766  173.601
25.3061  172.387
25.3356  171.775
25.3651  170.835
25.3946  170.693
25.424  170.599
25.4535  170.821
25.483  170.697
25.5125  170.627
25.542  169.698
25.5714  169.401
25.6009  168.994
25.6304  169.457
25.6599  169.379
25.6894  168.884
25.7189  169.287
25.7483  168.878
25.7778  169.255
25.8073  168.924
25.8368  168.308
25.8663  168.392
25.8957  167.92
25.9252  168.072
25.9547  167.507
25.9842  168.3
26.0137  167.966
26.0431  168.366
26.0726  167.943
26.1021  168.398
26.1316  167.995
26.1611  168.097
26.1906  167.656
26.22  168.021
26.2495  168.631
26.279  167.619
26.3085  168.358
26.338  168.544
26.3674  167.146
26.3969  166.991
26.4264  168.472
26.4559  167.438
26.4854  167.358
26.5149  168.178
26.5443  168.163
26.5738  167.524
26.6033  167.648
26.6328  167.433
26.6623  167.764
26.6917  167.488
26.7212  166.684
26.7507  167.839
26.7802  168.076
26.8097  169.075
26.8392  167.61
26.8686  166.253
26.8981  165.887
26.9276  165.804
26.9571  166.653
26.9866  165.792
27.016  167.187
27.0455  166.592
27.075  165.799
27.1045  165.974
27.134  165.731
27.1634  166.001
27.1929  165.792
27.2224  165.749
27.2519  165.967
27.2814  164.951
27.3109  165.229
27.3403  165.096
27.3698  165.365
27.3993  165.215
27.4288  164.232
27.4583  165.357
27.4877  165.559
27.5172  164.661
27.5467  164.701
27.5762  163.611
27.6057  164.112
27.6352  165.16
27.6646  163.981
27.6941  162.845
27.7236  163.749
27.7531  164.401
27.7826  164.066
27.812  163.696
27.8415  163.044
27.871  163.006
27.9005  163.124
27.93  162.836
27.9595  163.648
27.9889  162.463
28.0184  163.881
28.0479  162.776
28.0774  162.077
28.1069  162.868
28.1363  164.153
28.1658  162.704
28.1953  163.385
28.2248  163.201
28.2543  163.704
28.2837  163.449
28.3132  163.717
28.3427  162.957
28.3722  163.827
28.4017  163.712
28.4312  163.854
28.4606  165.66
28.4901  164.929
28.5196  164.085
28.5491  164.662
28.5786  164.329
28.608  165.391
28.6375  165.831
28.667  165.036
28.6965  164.892
28.726  165.155
28.7555  163.567
28.7849  163.334
28.8144  163.303
28.8439  163.476
28.8734  162.984
28.9029  163.323
28.9323  162.501
28.9618  162.332
28.9913  161.86
29.0208  163.121
29.0503  162.423
29.0798  162.577
29.1092  161.677
29.1387  161.509
29.1682  161.61
29.1977  160.668
29.2272  161.344
29.2566  159.716
29.2861  161.531
29.3156  159.937
29.3451  160.395
29.3746  162.018
29.404  160.593
29.4335  161.341
29.463  159.849
29.4925  160.661
29.522  160.221
29.5515  161.828
29.5809  161.172
29.6104  160.507
29.6399  159.151
29.6694  159.868
29.6989  159.56
29.7283  159.855
29.7578  159.745
29.7873  158.409
29.8168  158.734
29.8463  159.268
29.8758  158.15
29.9052  157.119
29.9347  155.023
29.9642  154.847
29.9937  154.038
30.0232  152.057
30.0526  150.665
30.0821  148.506
30.1116  146.761
30.1411  144.69
30.1706  142.687
30.2001  139.717
30.2295  136.916
30.259  133.454
30.2885  129.591
30.318  126.995
30.3475  124.545
30.3769  122.779
30.4064  121.407
30.4359  119.637
30.4654  117.149
30.4949  115.883
30.5243  114.188
30.5538  114.06
30.5833  110.483
30.6128  108.784
30.6423  108.397
30.6718  105.084
30.7012  102.908
30.7307  102.194
30.7602  99.963
30.7897  97.6343
30.8192  96.1941
30.8486  94.9105
30.8781  92.5421
30.9076  90.8844
30.9371  88.9874
30.9666  87.5841
30.9961  85.451
31.0255  83.792
31.055  82.2946
31.0845  79.6328
31.114  77.7628
31.1435  75.68
31.1729  74.0145
31.2024  73.1271
31.2319  71.4454
31.2614  68.6341
31.2909  68.0081
31.3204  66.0496
31.3498  63.5505
31.3793  62.3352
31.4088  60.9225
31.4383  58.14
31.4678  56.4897
31.4972  55.3267
31.5267  53.6616
31.5562  51.8079
31.5857  51.3406
31.6152  49.2984
31.6446  48.1837
31.6741  46.7739
31.7036  43.6189
31.7331  42.9368
31.7626  41.81
31.7921  40.4912
31.8215  38.2775
31.851  38.7657
31.8805  35.2625
31.91  36.1008
31.9395  33.7829
31.9689  32.3918
31.9984  34.3066
32.0279  21.5559
32.0574  31.3714
32.0869  25.0139