File: Figure1_XRD/047.xy
# == pyFAI calibration ==
# Distance Sample to Detector: 0.115075 m
# PONI: 5.477e-03, 4.716e-03 m
# Rotations: 0.004686 0.005536 0.000000 rad
#
# == Fit2d calibration ==
# Distance Sample-beamCenter: 115.078 mm
# Center: x=55.690, y=81.516 pix
# Tilt: 0.416 deg  TiltPlanRot: 130.247 deg
#
# Detector Detector	 Spline= None	 PixelSize= 7.500e-05, 7.500e-05 m
#    Detector has a mask: False
#    Detector has a dark current: False
#    detector has a flat field: False
#
# Wavelength: 4.833e-11 m
# Mask applied: None
# Dark current applied: None
# Flat field applied: None
# Polarization factor: None
# Normalization factor: None
#
# 2th_deg	 I
1.13121  35.5462
1.16069  49.6131
1.19017  62.0275
1.21965  73.0685
1.24914  81.3173
1.27862  91.0829
1.3081  94.4596
1.33758  99.823
1.36706  104.12
1.39654  107.299
1.42603  108.505
1.45551  112.569
1.48499  115.48
1.51447  116.396
1.54395  118.915
1.57343  121.55
1.60291  122.072
1.6324  123.658
1.66188  126.558
1.69136  126.088
1.72084  128.41
1.75032  130.175
1.7798  128.845
1.80929  131.612
1.83877  132.25
1.86825  133.314
1.89773  133.981
1.92721  135.505
1.95669  136.487
1.98618  139.334
2.01566  140.289
2.04514  140.722
2.07462  142.005
2.1041  143.86
2.13358  145.132
2.16307  146.558
2.19255  146.951
2.22203  147.99
2.25151  148.281
2.28099  149.679
2.31047  150.073
2.33995  149.955
2.36944  150.865
2.39892  150.964
2.4284  151.276
2.45788  151.576
2.48736  152.127
2.51684  152.192
2.54633  152.195
2.57581  151.977
2.60529  151.932
2.63477  150.69
2.66425  151.121
2.69373  150.698
2.72322  150.878
2.7527  151.133
2.78218  150.516
2.81166  150.456
2.84114  149.251
2.87062  148.696
2.9001  148.488
2.92959  147.801
2.95907  147.314
2.98855  147.228
3.01803  147.823
3.04751  148.592
3.07699  147.858
3.10648  146.603
3.13596  146.323
3.16544  146.788
3.19492  146.862
3.2244  146.883
3.25388  146.287
3.28337  146.756
3.31285  146.966
3.34233  147.452
3.37181  146.477
3.40129  145.651
3.43077  145.47
3.46025  145.051
3.48974  145.223
3.51922  144.042
3.5487  144.198
3.57818  145.037
3.60766  146.277
3.63714  147.091
3.66663  145.444
3.69611  142.827
3.72559  141.417
3.75507  141.872
3.78455  142.501
3.81403  144.111
3.84352  145.237
3.873  144.995
3.90248  144.333
3.93196  142.707
3.96144  141.008
3.99092  139.826
4.0204  139.268
4.04989  138.041
4.07937  137.578
4.10885  137.165
4.13833  136.7
4.16781  136.336
4.19729  135.536
4.22678  134.528
4.25626  134.445
4.28574  133.061
4.31522  132.386
4.3447  131.651
4.37418  129.724
4.40367  130.296
4.43315  130.481
4.46263  129.943
4.49211  129.2
4.52159  128.71
4.55107  128.693
4.58055  130.275
4.61004  129.628
4.63952  129.028
4.669  128.205
4.69848  126.987
4.72796  126.727
4.75744  126.601
4.78693  126.427
4.81641  126.248
4.84589  125.876
4.87537  125.27
4.90485  125.638
4.93433  125.934
4.96382  124.5
4.9933  124.792
5.02278  124.234
5.05226  123.595
5.08174  123.81
5.11122  124.066
5.14071  123.914
5.17019  123.143
5.19967  121.878
5.22915  121.481
5.25863  121.276
5.28811  121.2
5.31759  121.258
5.34708  120.498
5.37656  120.712
5.40604  120.628
5.43552  120.541
5.465  120.823
5.49448  120.462
5.52397  120.099
5.55345  120.217
5.58293  120.072
5.61241  119.65
5.64189  120.38
5.67137  121.445
5.70086  121.168
5.73034  120.559
5.75982  121.106
5.7893  120.132
5.81878  120.044
5.84826  119.041
5.87774  119.025
5.90723  120.011
5.93671  119.807
5.96619  119.448
5.99567  119.806
6.02515  119.709
6.05463  119.792
6.08412  120.242
6.1136  119.98
6.14308  119.403
6.17256  119.604
6.20204  120.065
6.23152  119.777
6.26101  119.6
6.29049  119.469
6.31997  120.29
6.34945  120.371
6.37893  120.161
6.40841  121.083
6.43789  120.971
6.46738  121.206
6.49686  121.097
6.52634  121.337
6.55582  121.987
6.5853  121.793
6.61478  121.244
6.64427  121.264
6.67375  120.798
6.70323  121.825
6.73271  122.687
6.76219  122.402
6.79167  122.497
6.82116  122.457
6.85064  121.901
6.88012  122.094
6.9096  122.077
6.93908  122.296
6.96856  122.402
6.99804  122.217
7.02753  122.256
7.05701  122.763
7.08649  122.882
7.11597  122.077
7.14545  122.389
7.17493  122.63
7.20442  123.171
7.2339  123.142
7.26338  123.142
7.29286  122.751
7.32234  123.368
7.35182  123.827
7.38131  122.886
7.41079  123.195
7.44027  122.94
7.46975  123.97
7.49923  124.663
7.52871  124.834
7.55819  124.834
7.58768  125.117
7.61716  124.885
7.64664  124.926
7.67612  125.433
7.7056  125.821
7.73508  126.169
7.76457  126.837
7.79405  126.976
7.82353  127.02
7.85301  127.441
7.88249  127.581
7.91197  128.65
7.94146  130.238
7.97094  131.66
8.00042  132.892
8.0299  135.064
8.05938  137.379
8.08886  140.836
8.11835  143.042
8.14783  144.158
8.17731  143.078
8.20679  142.613
8.23627  145.106
8.26575  148.097
8.29523  151.972
8.32472  160.061
8.3542  170.618
8.38368  178.503
8.41316  179.791
8.44264  169.017
8.47212  157.812
8.50161  149.464
8.53109  149.193
8.56057  148.254
8.59005  143.945
8.61953  142.251
8.64901  141.142
8.6785  141.409
8.70798  141.392
8.73746  141.263
8.76694  141.105
8.79642  142.315
8.8259  144.148
8.85538  144.608
8.88487  145.703
8.91435  146.773
8.94383  149.02
8.97331  149.891
9.00279  149.814
9.03227  149.402
9.06176  150.258
9.09124  151.667
9.12072  152.259
9.1502  152.467
9.17968  152.848
9.20916  153.637
9.23865  153.219
9.26813  153.341
9.29761  155.263
9.32709  156.526
9.35657  157.145
9.38605  158.654
9.41553  159.85
9.44502  159.764
9.4745  159.585
9.50398  160.653
9.53346  160.672
9.56294  162.376
9.59242  163.535
9.62191  165.733
9.65139  167.498
9.68087  168.35
9.71035  173.364
9.73983  184.243
9.76931  201.906
9.7988  216.573
9.82828  213.196
9.85776  195.441
9.88724  180.932
9.91672  176.69
9.9462  178.156
9.97568  182.982
10.0052  188.668
10.0346  191.957
10.0641  190.898
10.0936  187.563
10.1231  180.963
10.1526  173.939
10.1821  167.815
10.2115  163.597
10.241  167.845
10.2705  168.986
10.3  166.175
10.3295  163.468
10.3589  159.968
10.3884  158.248
10.4179  157.462
10.4474  156.382
10.4769  154.288
10.5064  153.554
10.5358  153.35
10.5653  152.746
10.5948  151.862
10.6243  152.027
10.6538  152.045
10.6832  151.035
10.7127  151.408
10.7422  151.286
10.7717  151.855
10.8012  151.84
10.8307  151.106
10.8601  151.081
10.8896  151.993
10.9191  152.738
10.9486  153.151
10.9781  153.772
11.0075  154.108
11.037  155.041
11.0665  155.786
11.096  155.328
11.1255  155.432
11.1549  155.251
11.1844  155.497
11.2139  155.261
11.2434  154.875
11.2729  154.315
11.3024  153.888
11.3318  154.061
11.3613  153.652
11.3908  153.998
11.4203  154.872
11.4498  155.302
11.4792  155.515
11.5087  156.256
11.5382  158.033
11.5677  161.099
11.5972  164.459
11.6267  170.377
11.6561  179.082
11.6856  187.609
11.7151  192.861
11.7446  192.105
11.7741  182.959
11.8035  172.41
11.833  165.677
11.8625  162.531
11.892  161.346
11.9215  161.114
11.951  161.56
11.9804  162.366
12.0099  162.412
12.0394  163.079
12.0689  162.302
12.0984  161.88
12.1278  163.149
12.1573  165.057
12.1868  165.208
12.2163  165.43
12.2458  166.488
12.2752  167.275
12.3047  168.19
12.3342  169.075
12.3637  169.871
12.3932  171.278
12.4227  172.618
12.4521  173.357
12.4816  174.388
12.5111  176.283
12.5406  177.624
12.5701  178.968
12.5995  179.577
12.629  179.526
12.6585  179.156
12.688  179.521
12.7175  179.503
12.747  179.574
12.7764  178.117
12.8059  178.668
12.8354  177.632
12.8649  177.832
12.8944  178.569
12.9238  178.243
12.9533  177.539
12.9828  177.703
13.0123  178.171
13.0418  179.441
13.0713  180.887
13.1007  182.951
13.1302  185.278
13.1597  190.553
13.1892  198.191
13.2187  208.048
13.2481  215.615
13.2776  219.522
13.3071  217.589
13.3366  208.765
13.3661  198.859
13.3955  189.751
13.425  182.784
13.4545  179.971
13.484  179.415
13.5135  177.622
13.543  177.691
13.5724  179.794
13.6019  182.035
13.6314  184.758
13.6609  187.163
13.6904  186.807
13.7198  183.388
13.7493  180.932
13.7788  179.26
13.8083  177.747
13.8378  177.33
13.8673  176.603
13.8967  176.689
13.9262  176.928
13.9557  177.85
13.9852  179.267
14.0147  182.199
14.0441  183.085
14.0736  185.438
14.1031  189.389
14.1326  194.487
14.1621  201.745
14.1916  209.476
14.221  219.445
14.2505  218.029
14.28  206.762
14.3095  196.221
14.339  191.179
14.3684  185.831
14.3979  181.329
14.4274  177.815
14.4569  175.869
14.4864  174.404
14.5158  172.884
14.5453  172.797
14.5748  173.035
14.6043  173.155
14.6338  174.08
14.6633  175.125
14.6927  176.939
14.7222  177.241
14.7517  177.502
14.7812  177.712
14.8107  175.966
14.8401  174.54
14.8696  172.48
14.8991  171.776
14.9286  171.133
14.9581  170.614
14.9876  171.423
15.017  171.268
15.0465  171.765
15.076  171.66
15.1055  172.934
15.135  173.237
15.1644  173.044
15.1939  172.362
15.2234  170.615
15.2529  170.59
15.2824  169.443
15.3119  169.036
15.3413  168.55
15.3708  168.407
15.4003  168.547
15.4298  168.073
15.4593  168.035
15.4887  168.073
15.5182  167.952
15.5477  168.64
15.5772  168.128
15.6067  168.739
15.6361  169.551
15.6656  169.053
15.6951  168.212
15.7246  168.019
15.7541  168.444
15.7836  168.689
15.813  168.815
15.8425  168.806
15.872  168.473
15.9015  169.37
15.931  168.418
15.9604  169.071
15.9899  168.774
16.0194  169.323
16.0489  170.182
16.0784  170.6
16.1079  169.814
16.1373  170.084
16.1668  170.454
16.1963  170.366
16.2258  170.725
16.2553  171.487
16.2847  171.624
16.3142  171.183
16.3437  171.746
16.3732  172.183
16.4027  174.04
16.4322  177.077
16.4616  177.461
16.4911  178.641
16.5206  179.962
16.5501  181.336
16.5796  179.531
16.609  176.959
16.6385  174.486
16.668  173.317
16.6975  172.922
16.727  172.313
16.7564  172.315
16.7859  172.347
16.8154  172.989
16.8449  171.621
16.8744  171.309
16.9039  172.542
16.9333  172.626
16.9628  172.844
16.9923  173.5
17.0218  174.056
17.0513  174.915
17.0807  175.284
17.1102  176.332
17.1397  178.038
17.1692  179.76
17.1987  180.98
17.2282  180.632
17.2576  179.504
17.2871  179.26
17.3166  179.676
17.3461  179.522
17.3756  182.051
17.405  183.685
17.4345  183.701
17.464  182.416
17.4935  181.503
17.523  178.834
17.5525  176.741
17.5819  176.244
17.6114  176.084
17.6409  175.415
17.6704  174.984
17.6999  174.83
17.7293  174.584
17.7588  175.062
17.7883  174.065
17.8178  174.029
17.8473  174.773
17.8767  175.581
17.9062  175.673
17.9357  175.133
17.9652  174.079
17.9947  174.543
18.0242  174.054
18.0536  174.488
18.0831  173.976
18.1126  173.405
18.1421  173.696
18.1716  173.218
18.201  173.035
18.2305  171.886
18.26  172.61
18.2895  171.268
18.319  170.298
18.3485  171.545
18.3779  171.578
18.4074  171.202
18.4369  171.622
18.4664  171.984
18.4959  171.053
18.5253  171.165
18.5548  170.981
18.5843  170.682
18.6138  171.275
18.6433  171.192
18.6728  170.45
18.7022  170.866
18.7317  169.994
18.7612  169.983
18.7907  170.251
18.8202  170.542
18.8496  170.723
18.8791  170.606
18.9086  169.698
18.9381  169.804
18.9676  170.075
18.997  171.316
19.0265  170.711
19.056  170.468
19.0855  171.485
19.115  171.243
19.1445  172.244
19.1739  171.981
19.2034  171.287
19.2329  169.839
19.2624  169.733
19.2919  169.049
19.3213  171.304
19.3508  171.072
19.3803  170.416
19.4098  171.244
19.4393  171.74
19.4688  172.307
19.4982  173.082
19.5277  172.839
19.5572  175.176
19.5867  174.581
19.6162  174.036
19.6456  174.133
19.6751  174.176
19.7046  173.773
19.7341  173.916
19.7636  171.72
19.7931  170.18
19.8225  170.47
19.852  170.802
19.8815  171.354
19.911  170.833
19.9405  171.104
19.9699  171.328
19.9994  171.919
20.0289  172.788
20.0584  172.876
20.0879  173.713
20.1173  175.864
20.1468  176.775
20.1763  177.823
20.2058  180.375
20.2353  183.784
20.2648  188.011
20.2942  190.485
20.3237  190.302
20.3532  189.482
20.3827  185.593
20.4122  182.053
20.4416  177.855
20.4711  173.86
20.5006  172.176
20.5301  170.378
20.5596  170.455
20.5891  170.879
20.6185  171.164
20.648  171.4
20.6775  172.046
20.707  171.472
20.7365  171.208
20.7659  172.367
20.7954  172.499
20.8249  172.025
20.8544  173.042
20.8839  173.415
20.9134  173.136
20.9428  173.116
20.9723  174
21.0018  173.568
21.0313  172.198
21.0608  172.218
21.0902  172.594
21.1197  172.198
21.1492  171.504
21.1787  172.695
21.2082  172.365
21.2377  172.265
21.2671  173.383
21.2966  173.274
21.3261  172.019
21.3556  172.705
21.3851  173.49
21.4145  173.862
21.444  174.148
21.4735  174.137
21.503  175.628
21.5325  176.01
21.5619  175.668
21.5914  175.553
21.6209  175.832
21.6504  176.834
21.6799  176.985
21.7094  177.476
21.7388  178.586
21.7683  179.26
21.7978  180.148
21.8273  182.224
21.8568  183.657
21.8862  182.568
21.9157  182.134
21.9452  180.12
21.9747  178.559
22.0042  177.299
22.0337  176.887
22.0631  176.964
22.0926  176.586
22.1221  175.784
22.1516  174.686
22.1811  175.206
22.2105  176.207
22.24  177.439
22.2695  179.209
22.299  180.091
22.3285  181.743
22.358  181.888
22.3874  182.314
22.4169  183.429
22.4464  185.972
22.4759  187.857
22.5054  189.12
22.5348  190.47
22.5643  190.5
22.5938  190.331
22.6233  189.76
22.6528  187.977
22.6822  185.596
22.7117  184.568
22.7412  182.864
22.7707  181.053
22.8002  180.09
22.8297  179.728
22.8591  178.181
22.8886  177.301
22.9181  178.055
22.9476  177.46
22.9771  177.768
23.0065  178.511
23.036  178.554
23.0655  179.387
23.095  178.183
23.1245  177.793
23.154  177.838
23.1834  178.425
23.2129  178.098
23.2424  177.366
23.2719  176.644
23.3014  176.486
23.3308  176.579
23.3603  176.489
23.3898  176.213
23.4193  176.582
23.4488  177.54
23.4783  179.019
23.5077  179.2
23.5372  177.836
23.5667  178.256
23.5962  177.032
23.6257  176.969
23.6551  177.379
23.6846  177.126
23.7141  177.148
23.7436  178.208
23.7731  178.438
23.8025  179.286
23.832  181.482
23.8615  181.944
23.891  182.491
23.9205  182.494
23.95  182.614
23.9794  181.616
24.0089  180.996
24.0384  180.682
24.0679  180.43
24.0974  178.806
24.1268  179.91
24.1563  181.464
24.1858  181.698
24.2153  183.282
24.2448  184.873
24.2743  187.907
24.3037  187.694
24.3332  188.417
24.3627  188.534
24.3922  187.449
24.4217  185.116
24.4511  183.506
24.4806  182.097
24.5101  181.936
24.5396  180.062
24.5691  179.154
24.5986  180.904
24.628  182.164
24.6575  183.881
24.687  185.207
24.7165  187.299
24.746  188.418
24.7754  188.518
24.8049  186.279
24.8344  184.895
24.8639  182.807
24.8934  181.179
24.9228  181.085
24.9523  181.523
24.9818  181.667
25.0113  181.638
25.0408  180.92
25.0703  181.112
25.0997  180.523
25.1292  179.758
25.1587  178.192
25.1882  177.783
25.2177  176.348
25.2471  176.471
25.2766  176.113
25.3061  177.044
25.3356  175.601
25.3651  176.564
25.3946  176.389
25.424  175.213
25.4535  175.986
25.483  174.984
25.5125  174.952
25.542  174.356
25.5714  173.245
25.6009  173.638
25.6304  174.104
25.6599  173.746
25.6894  173.577
25.7189  173.295
25.7483  173.794
25.7778  172.697
25.8073  173.76
25.8368  173.963
25.8663  171.987
25.8957  171.751
25.9252  171.007
25.9547  171.749
25.9842  173.046
26.0137  172.893
26.0431  172.955
26.0726  171.622
26.1021  172.216
26.1316  173.179
26.1611  172.297
26.1906  172.085
26.22  171.819
26.2495  171.648
26.279  172.473
26.3085  171.836
26.338  172.046
26.3674  171.867
26.3969  172.22
26.4264  172.38
26.4559  171.908
26.4854  170.871
26.5149  171.017
26.5443  169.812
26.5738  170.858
26.6033  171.296
26.6328  173.001
26.6623  171.832
26.6917  171.809
26.7212  170.81
26.7507  171.623
26.7802  170.285
26.8097  170.006
26.8392  170.275
26.8686  171.004
26.8981  170.424
26.9276  169.936
26.9571  169.215
26.9866  170.56
27.016  171.365
27.0455  169.816
27.075  169.66
27.1045  170.666
27.134  169.45
27.1634  169.407
27.1929  169.085
27.2224  169.209
27.2519  169.748
27.2814  170.685
27.3109  169.95
27.3403  170.285
27.3698  168.559
27.3993  168.72
27.4288  169.426
27.4583  169.038
27.4877  169.437
27.5172  168.733
27.5467  168.84
27.5762  167.941
27.6057  167.917
27.6352  167.838
27.6646  167.925
27.6941  168.764
27.7236  167.555
27.7531  167.104
27.7826  167.998
27.812  168.053
27.8415  166.612
27.871  167.172
27.9005  167.068
27.93  166.729
27.9595  167.79
27.9889  168.324
28.0184  167.841
28.0479  167.263
28.0774  166.266
28.1069  166.989
28.1363  166.314
28.1658  166.328
28.1953  167.829
28.2248  166.941
28.2543  166.995
28.2837  168.016
28.3132  168.028
28.3427  167.272
28.3722  167.525
28.4017  167.519
28.4312  166.888
28.4606  167.139
28.4901  166.669
28.5196  166.886
28.5491  167.797
28.5786  167.793
28.608  168.318
28.6375  169.888
28.667  169.496
28.6965  169.574
28.726  169.717
28.7555  169.122
28.7849  169.026
28.8144  167.824
28.8439  167.073
28.8734  167.305
28.9029  166.841
28.9323  166.468
28.9618  167.596
28.9913  166.831
29.0208  166.239
29.0503  164.899
29.0798  164.735
29.1092  166.209
29.1387  166.669
29.1682  165.754
29.1977  164.207
29.2272  164.833
29.2566  164.424
29.2861  164.194
29.3156  164.953
29.3451  164.795
29.3746  164.372
29.404  163.83
29.4335  163.657
29.463  164.194
29.4925  163.909
29.522  164.314
29.5515  163.41
29.5809  163.547
29.6104  163.094
29.6399  163.255
29.6694  163.348
29.6989  163.343
29.7283  162.86
29.7578  162.292
29.7873  162.201
29.8168  162.196
29.8463  162.614
29.8758  161.73
29.9052  162.008
29.9347  159.902
29.9642  158.468
29.9937  157.003
30.0232  155.295
30.0526  153.223
30.0821  151.281
30.1116  149.901
30.1411  148.818
30.1706  145.505
30.2001  142.512
30.2295  139.25
30.259  135.94
30.2885  131.933
30.318  128.836
30.3475  126.274
30.3769  124.757
30.4064  123.198
30.4359  121.676
30.4654  120.971
30.4949  118.893
30.5243  117.183
30.5538  115.109
30.5833  113.35
30.6128  111.239
30.6423  109.166
30.6718  106.363
30.7012  105.385
30.7307  103.078
30.7602  100.975
30.7897  100.059
30.8192  98.2576
30.8486  96.2131
30.8781  94.5514
30.9076  92.7927
30.9371  89.9297
30.9666  88.2031
30.9961  86.2967
31.0255  85.1626
31.055  83.143
31.0845  80.6945
31.114  79.5928
31.1435  77.4129
31.1729  75.842
31.2024  74.0875
31.2319  71.7647
31.2614  70.1803
31.2909  68.8965
31.3204  67.4234
31.3498  65.4221
31.3793  63.9223
31.4088  61.3391
31.4383  58.7658
31.4678  57.6738
31.4972  56.686
31.5267  54.9618
31.5562  52.4371
31.5857  51.5405
31.6152  50.557
31.6446  48.7864
31.6741  46.8473
31.7036  45.5287
31.7331  44.0116
31.7626  42.4844
31.7921  41.0537
31.8215  38.2053
31.851  37.5301
31.8805  37.4342
31.91  32.5449
31.9395  29.6214
31.9689  27.5251
31.9984  29.0622
32.0279  27.7147
32.0574  21.96
32.0869  21.404