File: Figure1_XRD/050.xy
# == pyFAI calibration ==
# Distance Sample to Detector: 0.115075 m
# PONI: 5.477e-03, 4.716e-03 m
# Rotations: 0.004686 0.005536 0.000000 rad
#
# == Fit2d calibration ==
# Distance Sample-beamCenter: 115.078 mm
# Center: x=55.690, y=81.516 pix
# Tilt: 0.416 deg  TiltPlanRot: 130.247 deg
#
# Detector Detector	 Spline= None	 PixelSize= 7.500e-05, 7.500e-05 m
#    Detector has a mask: False
#    Detector has a dark current: False
#    detector has a flat field: False
#
# Wavelength: 4.833e-11 m
# Mask applied: None
# Dark current applied: None
# Flat field applied: None
# Polarization factor: None
# Normalization factor: None
#
# 2th_deg	 I
1.13121  34.1585
1.16069  54.8574
1.19017  67.7111
1.21965  77.7657
1.24914  84.9085
1.27862  94.4181
1.3081  98.6174
1.33758  106.383
1.36706  110.546
1.39654  111.694
1.42603  114.194
1.45551  117.572
1.48499  121.107
1.51447  123.263
1.54395  124.472
1.57343  125.56
1.60291  128.695
1.6324  129.42
1.66188  131.442
1.69136  131.021
1.72084  133.262
1.75032  135.752
1.7798  136.017
1.80929  137.257
1.83877  138.445
1.86825  139.228
1.89773  139.312
1.92721  141.767
1.95669  143.345
1.98618  144.67
2.01566  145.853
2.04514  148.388
2.07462  150.159
2.1041  151.285
2.13358  151.995
2.16307  152.495
2.19255  154.108
2.22203  155.165
2.25151  155.872
2.28099  156.846
2.31047  156.995
2.33995  155.055
2.36944  155.95
2.39892  157.702
2.4284  157.88
2.45788  157.334
2.48736  157.57
2.51684  158.844
2.54633  158.289
2.57581  157.524
2.60529  157.992
2.63477  156.81
2.66425  156.889
2.69373  157.135
2.72322  157.225
2.7527  158.275
2.78218  157.813
2.81166  156.762
2.84114  156.404
2.87062  156.513
2.9001  156.496
2.92959  155.888
2.95907  154.758
2.98855  154.359
3.01803  153.524
3.04751  154.918
3.07699  154.906
3.10648  153.72
3.13596  153.516
3.16544  153.444
3.19492  153.445
3.2244  153.332
3.25388  152.932
3.28337  153.414
3.31285  153.054
3.34233  153.019
3.37181  153.349
3.40129  151.731
3.43077  152.346
3.46025  151.273
3.48974  151.555
3.51922  151.159
3.5487  151.179
3.57818  152.712
3.60766  153.577
3.63714  153.388
3.66663  151.441
3.69611  148.661
3.72559  147.391
3.75507  149.348
3.78455  150.077
3.81403  151.245
3.84352  151.497
3.873  151.647
3.90248  151.011
3.93196  149.227
3.96144  147.648
3.99092  146.183
4.0204  145.592
4.04989  144.571
4.07937  144.186
4.10885  142.865
4.13833  141.769
4.16781  142.033
4.19729  140.853
4.22678  140.056
4.25626  140.405
4.28574  139.745
4.31522  138.03
4.3447  137.995
4.37418  137.31
4.40367  136.729
4.43315  136.336
4.46263  136.949
4.49211  136.12
4.52159  134.861
4.55107  134.69
4.58055  134.941
4.61004  133.962
4.63952  133.571
4.669  134.006
4.69848  133.568
4.72796  133.394
4.75744  132.66
4.78693  132.41
4.81641  133.384
4.84589  132.415
4.87537  130.295
4.90485  130.788
4.93433  131.131
4.96382  130.357
4.9933  129.9
5.02278  129.583
5.05226  129.163
5.08174  129.346
5.11122  129.39
5.14071  129.176
5.17019  128.093
5.19967  127.736
5.22915  127.196
5.25863  126.261
5.28811  126.085
5.31759  127.222
5.34708  127.263
5.37656  126.673
5.40604  126.795
5.43552  126.332
5.465  126.264
5.49448  125.873
5.52397  125.409
5.55345  125.193
5.58293  125.696
5.61241  126.272
5.64189  126.344
5.67137  126.492
5.70086  127.106
5.73034  126.593
5.75982  126.771
5.7893  126.197
5.81878  126.033
5.84826  124.724
5.87774  125.083
5.90723  125.114
5.93671  125.407
5.96619  125.585
5.99567  125.047
6.02515  124.875
6.05463  124.743
6.08412  125.025
6.1136  125.871
6.14308  125.672
6.17256  125.097
6.20204  126.146
6.23152  125.409
6.26101  125.884
6.29049  124.605
6.31997  124.348
6.34945  125.787
6.37893  125.723
6.40841  125.125
6.43789  125.861
6.46738  126.254
6.49686  126.715
6.52634  126.718
6.55582  126.656
6.5853  126.955
6.61478  126.714
6.64427  126.068
6.67375  126.532
6.70323  127.202
6.73271  126.343
6.76219  127.1
6.79167  127.726
6.82116  128.496
6.85064  127.84
6.88012  127.147
6.9096  127.737
6.93908  127.573
6.96856  127.445
6.99804  127.986
7.02753  127.143
7.05701  127.641
7.08649  128.617
7.11597  128.923
7.14545  128.29
7.17493  128.422
7.20442  128.364
7.2339  128.353
7.26338  128.77
7.29286  128.777
7.32234  129.355
7.35182  129.717
7.38131  129.611
7.41079  129.863
7.44027  129.998
7.46975  129.747
7.49923  129.915
7.52871  130.715
7.55819  130.697
7.58768  131.315
7.61716  131.25
7.64664  131.258
7.67612  132.405
7.7056  132.336
7.73508  132.448
7.76457  132.65
7.79405  133.348
7.82353  133.276
7.85301  133.424
7.88249  133.445
7.91197  134.144
7.94146  135.544
7.97094  136.384
8.00042  137.94
8.0299  138.704
8.05938  140.249
8.08886  142.856
8.11835  145.375
8.14783  147.98
8.17731  150.21
8.20679  151.128
8.23627  152.704
8.26575  154.717
8.29523  157.527
8.32472  163.416
8.3542  173.399
8.38368  183.569
8.41316  188.741
8.44264  183.668
8.47212  172.18
8.50161  160.855
8.53109  159.01
8.56057  158.418
8.59005  153.046
8.61953  149.669
8.64901  149.037
8.6785  147.805
8.70798  146.952
8.73746  147.625
8.76694  148.306
8.79642  148.926
8.8259  150.53
8.85538  151.3
8.88487  152.117
8.91435  152.984
8.94383  154.756
8.97331  156.807
9.00279  156.648
9.03227  157.271
9.06176  157.974
9.09124  158.193
9.12072  158.717
9.1502  159.051
9.17968  160.01
9.20916  160.708
9.23865  161.362
9.26813  161.744
9.29761  162.862
9.32709  162.866
9.35657  164.204
9.38605  165.084
9.41553  166.489
9.44502  167.278
9.4745  167.992
9.50398  167.402
9.53346  168.67
9.56294  169.07
9.59242  169.79
9.62191  170.627
9.65139  171.798
9.68087  172.516
9.71035  175.058
9.73983  182.18
9.76931  194.565
9.7988  210.27
9.82828  221.472
9.85776  215.97
9.88724  201.572
9.91672  190.113
9.9462  186.016
9.97568  189.143
10.0052  194.595
10.0346  200.981
10.0641  203.719
10.0936  201.603
10.1231  193.293
10.1526  186.157
10.1821  179.223
10.2115  174.534
10.241  177.477
10.2705  178.166
10.3  173.9
10.3295  170.48
10.3589  167.223
10.3884  165.118
10.4179  162.935
10.4474  161.709
10.4769  160.278
10.5064  159.258
10.5358  157.99
10.5653  157.519
10.5948  157.129
10.6243  156.73
10.6538  156.586
10.6832  156.179
10.7127  156.23
10.7422  155.883
10.7717  155.573
10.8012  155.767
10.8307  155.701
10.8601  155.856
10.8896  156.38
10.9191  156.705
10.9486  157.06
10.9781  157.719
11.0075  157.476
11.037  157.321
11.0665  158.779
11.096  158.948
11.1255  159.699
11.1549  158.883
11.1844  158.607
11.2139  159.141
11.2434  158.729
11.2729  157.484
11.3024  156.722
11.3318  156.365
11.3613  155.724
11.3908  156.447
11.4203  157.146
11.4498  157.625
11.4792  157.492
11.5087  158.595
11.5382  159.581
11.5677  161.437
11.5972  164.971
11.6267  171.293
11.6561  179.091
11.6856  187.959
11.7151  194.928
11.7446  195.192
11.7741  185.941
11.8035  174.298
11.833  165.137
11.8625  160.54
11.892  158.65
11.9215  158.051
11.951  158.432
11.9804  159.327
12.0099  159.487
12.0394  159.438
12.0689  159.941
12.0984  159.013
12.1278  159.1
12.1573  161.085
12.1868  161.614
12.2163  161.891
12.2458  162.235
12.2752  162.231
12.3047  163.49
12.3342  163.179
12.3637  162.855
12.3932  164.52
12.4227  165.466
12.4521  166.759
12.4816  167.873
12.5111  169.11
12.5406  170.431
12.5701  171.51
12.5995  173.211
12.629  173.687
12.6585  173.248
12.688  172.513
12.7175  171.934
12.747  172.558
12.7764  171.961
12.8059  172.043
12.8354  172.544
12.8649  171.991
12.8944  172.818
12.9238  171.948
12.9533  172.777
12.9828  173.413
13.0123  173.6
13.0418  173.654
13.0713  175.232
13.1007  178.282
13.1302  180.655
13.1597  186.119
13.1892  194.481
13.2187  204.249
13.2481  213.186
13.2776  218.663
13.3071  216.059
13.3366  206.974
13.3661  196.499
13.3955  187.376
13.425  180.869
13.4545  177.079
13.484  175.339
13.5135  174.43
13.543  174.606
13.5724  176.263
13.6019  178.295
13.6314  180.121
13.6609  183.494
13.6904  184.253
13.7198  182.533
13.7493  179.402
13.7788  177.157
13.8083  176.225
13.8378  175.899
13.8673  175.353
13.8967  176.151
13.9262  176.14
13.9557  177.121
13.9852  177.755
14.0147  179.986
14.0441  181.865
14.0736  183.94
14.1031  188.147
14.1326  193.43
14.1621  200.892
14.1916  210.867
14.221  221.621
14.2505  225.914
14.28  220.249
14.3095  210.412
14.339  204.114
14.3684  195.562
14.3979  188.127
14.4274  183.501
14.4569  180.845
14.4864  178.983
14.5158  177.846
14.5453  177.455
14.5748  176.398
14.6043  176.988
14.6338  177.506
14.6633  178.847
14.6927  178.896
14.7222  179.343
14.7517  180.756
14.7812  182.459
14.8107  181.225
14.8401  180.026
14.8696  178.378
14.8991  176.934
14.9286  176.218
14.9581  174.782
14.9876  174.751
15.017  174.797
15.0465  174.583
15.076  174.596
15.1055  175.088
15.135  175.622
15.1644  175.65
15.1939  176
15.2234  175.768
15.2529  175.589
15.2824  174.542
15.3119  174.026
15.3413  173.71
15.3708  173.179
15.4003  172.276
15.4298  171.893
15.4593  171.78
15.4887  172.895
15.5182  173.026
15.5477  172.443
15.5772  172.522
15.6067  173.164
15.6361  173.898
15.6656  173.673
15.6951  173.592
15.7246  172.897
15.7541  172
15.7836  173.436
15.813  173.936
15.8425  172.927
15.872  172.899
15.9015  173.918
15.931  173.366
15.9604  174.012
15.9899  174.336
16.0194  174.593
16.0489  175.055
16.0784  175.774
16.1079  175.007
16.1373  175.065
16.1668  176.21
16.1963  175.922
16.2258  176.55
16.2553  177.007
16.2847  177.444
16.3142  177.413
16.3437  178.209
16.3732  179.304
16.4027  180.414
16.4322  181.561
16.4616  182.209
16.4911  184.537
16.5206  185.814
16.5501  187.309
16.5796  186.924
16.609  185.026
16.6385  181.718
16.668  180.073
16.6975  179.934
16.727  179.188
16.7564  178.768
16.7859  178.819
16.8154  178.27
16.8449  178.273
16.8744  177.624
16.9039  178.398
16.9333  178.563
16.9628  179.216
16.9923  179.617
17.0218  180.599
17.0513  180.733
17.0807  180.916
17.1102  181.709
17.1397  183.501
17.1692  183.645
17.1987  185.045
17.2282  184.748
17.2576  185.928
17.2871  186.732
17.3166  186.336
17.3461  185.737
17.3756  186.664
17.405  188.655
17.4345  189.749
17.464  190.759
17.4935  190.617
17.523  187.413
17.5525  185.576
17.5819  184.239
17.6114  182.949
17.6409  182.311
17.6704  182.191
17.6999  182.873
17.7293  181.598
17.7588  182.019
17.7883  181.096
17.8178  181.013
17.8473  181.111
17.8767  181.505
17.9062  181.518
17.9357  181.917
17.9652  182.102
17.9947  182.476
18.0242  181.41
18.0536  180.906
18.0831  180.873
18.1126  181.059
18.1421  181.38
18.1716  180.554
18.201  180.765
18.2305  179.901
18.26  179.666
18.2895  179.066
18.319  178.731
18.3485  178.557
18.3779  178.47
18.4074  178.115
18.4369  178.206
18.4664  178.752
18.4959  178.154
18.5253  178.027
18.5548  177.847
18.5843  176.876
18.6138  177.44
18.6433  177.69
18.6728  177.405
18.7022  176.651
18.7317  177.081
18.7612  176.984
18.7907  177.043
18.8202  177.128
18.8496  177.596
18.8791  177.406
18.9086  177.034
18.9381  176.844
18.9676  176.566
18.997  176.918
19.0265  177.41
19.056  176.696
19.0855  176.826
19.115  177.806
19.1445  177.235
19.1739  177.88
19.2034  177.902
19.2329  177.627
19.2624  177.633
19.2919  177.229
19.3213  176.492
19.3508  176.319
19.3803  176.521
19.4098  176.439
19.4393  177.204
19.4688  177.892
19.4982  179.259
19.5277  179.549
19.5572  180.453
19.5867  180.326
19.6162  180.026
19.6456  179.901
19.6751  181.045
19.7046  181.218
19.7341  180.849
19.7636  179.938
19.7931  178.675
19.8225  178.522
19.852  177.986
19.8815  177.405
19.911  177.631
19.9405  177.265
19.9699  178.347
19.9994  178.884
20.0289  178.694
20.0584  179.201
20.0879  180.482
20.1173  181.892
20.1468  183.539
20.1763  185.072
20.2058  187.286
20.2353  189.675
20.2648  193.863
20.2942  197.528
20.3237  198.214
20.3532  196.743
20.3827  192.897
20.4122  187.974
20.4416  184.801
20.4711  181.258
20.5006  179.253
20.5301  178.052
20.5596  177.96
20.5891  177.481
20.6185  177.021
20.648  176.788
20.6775  177.428
20.707  177.385
20.7365  177.569
20.7659  176.307
20.7954  177.022
20.8249  177.335
20.8544  178.611
20.8839  178.337
20.9134  179.039
20.9428  179.517
20.9723  179.924
21.0018  178.597
21.0313  178.994
21.0608  179.567
21.0902  178.822
21.1197  176.822
21.1492  176.851
21.1787  177.094
21.2082  177.615
21.2377  176.799
21.2671  176.99
21.2966  177.582
21.3261  177.848
21.3556  178.715
21.3851  177.836
21.4145  177.536
21.444  178.314
21.4735  179.525
21.503  179.599
21.5325  179.882
21.5619  179.382
21.5914  180.766
21.6209  180.637
21.6504  180.997
21.6799  181.713
21.7094  182.239
21.7388  184.463
21.7683  184.651
21.7978  185.122
21.8273  186.274
21.8568  188.15
21.8862  189.091
21.9157  188.314
21.9452  187.673
21.9747  185.08
22.0042  184.118
22.0337  183.704
22.0631  182.013
22.0926  180.914
22.1221  181.578
22.1516  180.788
22.1811  181.472
22.2105  181.415
22.24  182.891
22.2695  183.738
22.299  184.296
22.3285  186.231
22.358  186.546
22.3874  187.323
22.4169  188.428
22.4464  189.118
22.4759  190.761
22.5054  192.469
22.5348  194.403
22.5643  196.283
22.5938  197.485
22.6233  199.308
22.6528  197.756
22.6822  194.353
22.7117  190.795
22.7412  188.483
22.7707  187.428
22.8002  186.409
22.8297  185.403
22.8591  185.014
22.8886  184.114
22.9181  184.494
22.9476  184.085
22.9771  184.314
23.0065  184.498
23.036  185.358
23.0655  184.22
23.095  184.159
23.1245  185.352
23.154  184.771
23.1834  184.479
23.2129  184.575
23.2424  184.064
23.2719  183.592
23.3014  183.558
23.3308  183.23
23.3603  184.447
23.3898  183.885
23.4193  184.388
23.4488  184.745
23.4783  186.269
23.5077  185.798
23.5372  184.221
23.5667  185.455
23.5962  184.214
23.6257  184.835
23.6551  184.07
23.6846  183.01
23.7141  184.285
23.7436  183.868
23.7731  184.713
23.8025  186.256
23.832  187.679
23.8615  188.629
23.891  189.98
23.9205  189.962
23.95  190.476
23.9794  191.428
24.0089  188.984
24.0384  187.859
24.0679  187.802
24.0974  188.285
24.1268  188.409
24.1563  189.315
24.1858  190.513
24.2153  191.916
24.2448  194.162
24.2743  195.651
24.3037  197.286
24.3332  197.841
24.3627  198.363
24.3922  198.136
24.4217  195.943
24.4511  194.083
24.4806  193.509
24.5101  192.129
24.5396  190.857
24.5691  191.052
24.5986  192.112
24.628  191.34
24.6575  192.407
24.687  193.789
24.7165  194.377
24.746  196.551
24.7754  199.302
24.8049  197.385
24.8344  195.869
24.8639  193.543
24.8934  192.471
24.9228  191.512
24.9523  190.556
24.9818  190.32
25.0113  190.823
25.0408  191.356
25.0703  190.974
25.0997  190.598
25.1292  190.812
25.1587  189.936
25.1882  189.253
25.2177  188.773
25.2471  188.015
25.2766  187.586
25.3061  187.523
25.3356  187.521
25.3651  188.014
25.3946  188.351
25.424  187.958
25.4535  189.525
25.483  188.605
25.5125  187.896
25.542  187.679
25.5714  186.489
25.6009  185.958
25.6304  186.077
25.6599  185.684
25.6894  186.311
25.7189  185.769
25.7483  186.09
25.7778  185.587
25.8073  184.203
25.8368  183.631
25.8663  183.714
25.8957  183.524
25.9252  183.198
25.9547  183.18
25.9842  183.545
26.0137  182.521
26.0431  182.63
26.0726  182.663
26.1021  181.887
26.1316  181.475
26.1611  182.085
26.1906  181.745
26.22  181.55
26.2495  181.766
26.279  180.578
26.3085  181.181
26.338  181.012
26.3674  181.302
26.3969  180.571
26.4264  179.503
26.4559  179.308
26.4854  180.046
26.5149  180.642
26.5443  180.778
26.5738  179.924
26.6033  180.106
26.6328  180.638
26.6623  180.338
26.6917  180.071
26.7212  179.606
26.7507  179.67
26.7802  178.61
26.8097  179.1
26.8392  178.88
26.8686  178.99
26.8981  177.341
26.9276  177.467
26.9571  178.667
26.9866  179.001
27.016  178.793
27.0455  178.52
27.075  178.589
27.1045  179.166
27.134  178.225
27.1634  177.827
27.1929  177.838
27.2224  177.618
27.2519  177.252
27.2814  177.511
27.3109  178.015
27.3403  177.666
27.3698  177.508
27.3993  176.617
27.4288  177.13
27.4583  176.862
27.4877  176.742
27.5172  175.831
27.5467  175.583
27.5762  176.07
27.6057  175.143
27.6352  176.843
27.6646  176.603
27.6941  175.555
27.7236  175.218
27.7531  174.821
27.7826  175.047
27.812  175.222
27.8415  175.427
27.871  173.662
27.9005  174.762
27.93  174.902
27.9595  175.712
27.9889  173.612
28.0184  173.885
28.0479  174.716
28.0774  173.268
28.1069  173.452
28.1363  174.272
28.1658  173.457
28.1953  174.113
28.2248  174.124
28.2543  174.221
28.2837  174.366
28.3132  173.38
28.3427  173.17
28.3722  174.339
28.4017  173.405
28.4312  173.502
28.4606  173.426
28.4901  174.029
28.5196  174.091
28.5491  175.063
28.5786  174.568
28.608  175.194
28.6375  175.843
28.667  176.725
28.6965  176.469
28.726  176.426
28.7555  176.752
28.7849  175.691
28.8144  174.803
28.8439  174.439
28.8734  174.573
28.9029  174.189
28.9323  174.38
28.9618  174.957
28.9913  173.599
29.0208  172.75
29.0503  172.638
29.0798  172.645
29.1092  172.691
29.1387  171.363
29.1682  173.075
29.1977  171.443
29.2272  171.324
29.2566  171.602
29.2861  171.843
29.3156  171.666
29.3451  170.295
29.3746  172.081
29.404  171.98
29.4335  171.525
29.463  170.574
29.4925  169.851
29.522  170.355
29.5515  170.052
29.5809  170.133
29.6104  169.842
29.6399  169.733
29.6694  169.124
29.6989  168.9
29.7283  169.658
29.7578  169.817
29.7873  167.687
29.8168  168.617
29.8463  168.741
29.8758  167.345
29.9052  166.679
29.9347  165.94
29.9642  165.311
29.9937  163.376
30.0232  161.2
30.0526  160.606
30.0821  157.163
30.1116  155.866
30.1411  152.985
30.1706  151.378
30.2001  148.985
30.2295  144.992
30.259  141.866
30.2885  138.583
30.318  133.815
30.3475  132.391
30.3769  128.877
30.4064  127.06
30.4359  126.463
30.4654  125.145
30.4949  122.56
30.5243  121.77
30.5538  118.549
30.5833  117.03
30.6128  115.313
30.6423  112.851
30.6718  111.431
30.7012  109.627
30.7307  108.434
30.7602  105.02
30.7897  103.655
30.8192  101.201
30.8486  98.9498
30.8781  97.8336
30.9076  96.3426
30.9371  94.563
30.9666  91.4162
30.9961  89.9001
31.0255  87.7955
31.055  85.7213
31.0845  84.2511
31.114  81.8895
31.1435  79.634
31.1729  77.9716
31.2024  76.1043
31.2319  74.8219
31.2614  72.3913
31.2909  70.698
31.3204  68.5302
31.3498  67.2127
31.3793  65.4167
31.4088  63.8142
31.4383  61.19
31.4678  59.7962
31.4972  57.7142
31.5267  57.0775
31.5562  54.1264
31.5857  53.4316
31.6152  51.9005
31.6446  49.6738
31.6741  47.8855
31.7036  45.6762
31.7331  44.4282
31.7626  43.996
31.7921  42.0707
31.8215  39.9963
31.851  38.424
31.8805  36.5754
31.91  32.8044
31.9395  30.7655
31.9689  29.9522
31.9984  29.8338
32.0279  27.7147
32.0574  31.3714
32.0869  15.2782