File: Figure1_XRD/056.xy
# == pyFAI calibration ==
# Distance Sample to Detector: 0.115075 m
# PONI: 5.477e-03, 4.716e-03 m
# Rotations: 0.004686 0.005536 0.000000 rad
#
# == Fit2d calibration ==
# Distance Sample-beamCenter: 115.078 mm
# Center: x=55.690, y=81.516 pix
# Tilt: 0.416 deg  TiltPlanRot: 130.247 deg
#
# Detector Detector	 Spline= None	 PixelSize= 7.500e-05, 7.500e-05 m
#    Detector has a mask: False
#    Detector has a dark current: False
#    detector has a flat field: False
#
# Wavelength: 4.833e-11 m
# Mask applied: None
# Dark current applied: None
# Flat field applied: None
# Polarization factor: None
# Normalization factor: None
#
# 2th_deg	 I
1.13121  64.9558
1.16069  91.6624
1.19017  113.17
1.21965  133.841
1.24914  142.907
1.27862  157.987
1.3081  164.922
1.33758  175.504
1.36706  185.078
1.39654  189.313
1.42603  195.229
1.45551  199.677
1.48499  202.561
1.51447  206.444
1.54395  208.323
1.57343  213.462
1.60291  214.603
1.6324  218.691
1.66188  224.062
1.69136  225.04
1.72084  228.945
1.75032  230.449
1.7798  230.369
1.80929  233.008
1.83877  234.597
1.86825  235.137
1.89773  238.261
1.92721  240.33
1.95669  242.935
1.98618  246.206
2.01566  247.629
2.04514  250.085
2.07462  253.942
2.1041  256.541
2.13358  258.949
2.16307  258.973
2.19255  259.896
2.22203  263.266
2.25151  264.579
2.28099  266.777
2.31047  266.448
2.33995  266.784
2.36944  267.846
2.39892  269.124
2.4284  271.519
2.45788  269.922
2.48736  268.463
2.51684  271.09
2.54633  269.968
2.57581  269.423
2.60529  268.852
2.63477  269.121
2.66425  269.659
2.69373  269.876
2.72322  269.23
2.7527  268.205
2.78218  268.1
2.81166  266.705
2.84114  265.078
2.87062  265.787
2.9001  265.693
2.92959  264.338
2.95907  262.854
2.98855  263.484
3.01803  262.166
3.04751  262.032
3.07699  263.102
3.10648  261.357
3.13596  261.427
3.16544  261.677
3.19492  263.354
3.2244  263.364
3.25388  261.887
3.28337  260.653
3.31285  260.238
3.34233  261.047
3.37181  261.573
3.40129  260.11
3.43077  260.107
3.46025  259.781
3.48974  259.569
3.51922  258.999
3.5487  259.438
3.57818  258.186
3.60766  256.799
3.63714  258.11
3.66663  255.503
3.69611  252.292
3.72559  252.165
3.75507  254.616
3.78455  255.385
3.81403  259.362
3.84352  261.65
3.873  261.967
3.90248  260.291
3.93196  256.62
3.96144  253.656
3.99092  252.616
4.0204  250.077
4.04989  247.003
4.07937  247.416
4.10885  245.866
4.13833  242.64
4.16781  242.649
4.19729  241.034
4.22678  240.604
4.25626  238.702
4.28574  238.192
4.31522  238.349
4.3447  237.988
4.37418  235.614
4.40367  234.226
4.43315  232.194
4.46263  232.252
4.49211  231.122
4.52159  229.871
4.55107  229.023
4.58055  229.647
4.61004  230.325
4.63952  229.633
4.669  227.462
4.69848  226.772
4.72796  227.64
4.75744  227.513
4.78693  227.869
4.81641  226.919
4.84589  224.784
4.87537  224.458
4.90485  223.942
4.93433  225.346
4.96382  224.891
4.9933  222.539
5.02278  221.76
5.05226  222.082
5.08174  221.886
5.11122  221.985
5.14071  221.163
5.17019  219.849
5.19967  220.185
5.22915  219.412
5.25863  218.896
5.28811  219.705
5.31759  218.733
5.34708  216.866
5.37656  216.25
5.40604  216.494
5.43552  216.663
5.465  216.299
5.49448  217.04
5.52397  216.448
5.55345  216.036
5.58293  216.446
5.61241  215.936
5.64189  215.35
5.67137  217.055
5.70086  217.872
5.73034  217.5
5.75982  218.456
5.7893  218.646
5.81878  215.946
5.84826  214.848
5.87774  214.736
5.90723  215.905
5.93671  215.887
5.96619  215.867
5.99567  214.897
6.02515  213.852
6.05463  216.072
6.08412  215.786
6.1136  214.491
6.14308  214.922
6.17256  214.288
6.20204  214.721
6.23152  215.124
6.26101  216.048
6.29049  215.146
6.31997  214.832
6.34945  214.787
6.37893  215.28
6.40841  216.291
6.43789  215.718
6.46738  216.257
6.49686  217.253
6.52634  217.402
6.55582  217.625
6.5853  218.15
6.61478  219.195
6.64427  217.875
6.67375  216.875
6.70323  217.719
6.73271  216.789
6.76219  217.268
6.79167  218.314
6.82116  218.693
6.85064  219.043
6.88012  219.093
6.9096  219.991
6.93908  220.035
6.96856  220.743
6.99804  220.458
7.02753  220.068
7.05701  221.184
7.08649  220.375
7.11597  220.846
7.14545  220.534
7.17493  220.288
7.20442  220.838
7.2339  221.306
7.26338  221.971
7.29286  220.039
7.32234  220.982
7.35182  222.654
7.38131  221.965
7.41079  222.673
7.44027  223.716
7.46975  224.647
7.49923  224.501
7.52871  224.472
7.55819  225.218
7.58768  225.903
7.61716  225.951
7.64664  226.178
7.67612  227.136
7.7056  226.993
7.73508  226.863
7.76457  227.115
7.79405  228.325
7.82353  228.64
7.85301  228.705
7.88249  230.35
7.91197  229.903
7.94146  229.687
7.97094  230.783
8.00042  232.404
8.0299  233.307
8.05938  234.77
8.08886  237.883
8.11835  239.611
8.14783  240.507
8.17731  243.254
8.20679  248.193
8.23627  256.918
8.26575  265.646
8.29523  271.952
8.32472  272.832
8.3542  276.043
8.38368  284.926
8.41316  300.314
8.44264  318.292
8.47212  333.108
8.50161  326.328
8.53109  301.242
8.56057  278.748
8.59005  267.617
8.61953  260.733
8.64901  254.862
8.6785  252.464
8.70798  252.944
8.73746  256.779
8.76694  257.032
8.79642  257.495
8.8259  257.512
8.85538  259.394
8.88487  261.287
8.91435  263.804
8.94383  266.35
8.97331  267.491
9.00279  269.177
9.03227  269.397
9.06176  270.319
9.09124  271.399
9.12072  271.424
9.1502  271.339
9.17968  273.38
9.20916  274.527
9.23865  275.61
9.26813  277.148
9.29761  277.621
9.32709  278.088
9.35657  279.014
9.38605  280.081
9.41553  282.992
9.44502  284.756
9.4745  286.125
9.50398  287.288
9.53346  287.495
9.56294  290.123
9.59242  289.5
9.62191  290.325
9.65139  291.103
9.68087  292.796
9.71035  295.613
9.73983  296.792
9.76931  298.533
9.7988  299.482
9.82828  304.06
9.85776  317.407
9.88724  341.011
9.91672  363.451
9.9462  373.493
9.97568  361.759
10.0052  339.553
10.0346  328.502
10.0641  328.607
10.0936  335.186
10.1231  342.404
10.1526  342.559
10.1821  335.487
10.2115  323.01
10.241  309.247
10.2705  297.833
10.3  292.327
10.3295  289.922
10.3589  291.184
10.3884  293.56
10.4179  290.193
10.4474  286.129
10.4769  281.244
10.5064  278.261
10.5358  275.883
10.5653  274.246
10.5948  272.347
10.6243  270.346
10.6538  269.782
10.6832  269.445
10.7127  267.563
10.7422  266.829
10.7717  268.246
10.8012  267.848
10.8307  267.006
10.8601  266.556
10.8896  265.23
10.9191  266.608
10.9486  268.069
10.9781  267.193
11.0075  268.332
11.037  269.263
11.0665  270.734
11.096  271.176
11.1255  271.913
11.1549  271.87
11.1844  272.08
11.2139  272.864
11.2434  272.615
11.2729  271.686
11.3024  273.457
11.3318  271.128
11.3613  270.32
11.3908  270.957
11.4203  269.996
11.4498  268.776
11.4792  268.983
11.5087  270.839
11.5382  273.126
11.5677  277.507
11.5972  282.866
11.6267  294.404
11.6561  309.25
11.6856  320.963
11.7151  330.797
11.7446  332.293
11.7741  320.409
11.8035  300.293
11.833  283.823
11.8625  274.479
11.892  272.095
11.9215  270.785
11.951  269.928
11.9804  269.055
12.0099  269.279
12.0394  269.956
12.0689  268.292
12.0984  268.713
12.1278  268.952
12.1573  270.527
12.1868  271.088
12.2163  271.944
12.2458  272.438
12.2752  273.287
12.3047  275.141
12.3342  274.664
12.3637  275.682
12.3932  276.266
12.4227  276.846
12.4521  279.137
12.4816  281.515
12.5111  283.212
12.5406  286.029
12.5701  287.518
12.5995  288.033
12.629  289.756
12.6585  292.97
12.688  292.251
12.7175  291.449
12.747  293.09
12.7764  292.702
12.8059  292.657
12.8354  292.971
12.8649  291.742
12.8944  292.189
12.9238  292.498
12.9533  292.467
12.9828  292.901
13.0123  293.01
13.0418  294.541
13.0713  295.89
13.1007  299.509
13.1302  303.594
13.1597  312.227
13.1892  322.649
13.2187  335.233
13.2481  350.772
13.2776  364.397
13.3071  369.422
13.3366  359.715
13.3661  343.669
13.3955  327.924
13.425  317.679
13.4545  311.371
13.484  306.52
13.5135  304.289
13.543  302.064
13.5724  300.888
13.6019  301.931
13.6314  304.109
13.6609  307.472
13.6904  312.206
13.7198  315.102
13.7493  316.351
13.7788  314.789
13.8083  311.1
13.8378  307.522
13.8673  304.23
13.8967  302.819
13.9262  301.434
13.9557  300.452
13.9852  301.387
14.0147  302.498
14.0441  304.136
14.0736  304.648
14.1031  307.387
14.1326  309.683
14.1621  313.116
14.1916  318.706
14.221  327.114
14.2505  337.748
14.28  353.881
14.3095  373.557
14.339  392.25
14.3684  393.314
14.3979  377.948
14.4274  357.695
14.4569  341.209
14.4864  330.738
14.5158  326.062
14.5453  319.028
14.5748  314.329
14.6043  311.498
14.6338  309.9
14.6633  308.776
14.6927  306.225
14.7222  305.635
14.7517  305.791
14.7812  306.717
14.8107  309.234
14.8401  312.873
14.8696  316.596
14.8991  316.842
14.9286  316.632
14.9581  311.66
14.9876  307.737
15.017  305.213
15.0465  302.099
15.076  299.998
15.1055  301.825
15.135  302.031
15.1644  301.735
15.1939  301.257
15.2234  300.705
15.2529  302.351
15.2824  302.539
15.3119  303.398
15.3413  304.211
15.3708  304.916
15.4003  304.038
15.4298  304.513
15.4593  303.85
15.4887  302.81
15.5182  301.714
15.5477  301.57
15.5772  300.766
15.6067  300.249
15.6361  300.749
15.6656  300.101
15.6951  300.088
15.7246  300.353
15.7541  299.305
15.7836  299.421
15.813  299.227
15.8425  298.982
15.872  298.983
15.9015  299.376
15.931  299.649
15.9604  300.594
15.9899  300.947
16.0194  299.964
16.0489  301.644
16.0784  302.625
16.1079  301.375
16.1373  301.39
16.1668  303.567
16.1963  302.567
16.2258  302.759
16.2553  303.14
16.2847  303.89
16.3142  305.873
16.3437  307.394
16.3732  308.745
16.4027  309.367
16.4322  309.264
16.4616  309.954
16.4911  309.807
16.5206  308.966
16.5501  310.638
16.5796  312.964
16.609  317.782
16.6385  323.039
16.668  327.184
16.6975  326.241
16.727  322.386
16.7564  316.495
16.7859  312.303
16.8154  310.22
16.8449  308.654
16.8744  306.188
16.9039  306.444
16.9333  306.965
16.9628  306.769
16.9923  308.632
17.0218  309.412
17.0513  309.7
17.0807  309.151
17.1102  309.439
17.1397  310.208
17.1692  311.841
17.1987  313.402
17.2282  314.289
17.2576  314.745
17.2871  314.29
17.3166  314.15
17.3461  315.645
17.3756  317.136
17.405  318.161
17.4345  319.531
17.464  321.165
17.4935  326.124
17.523  328.884
17.5525  330.802
17.5819  332.391
17.6114  329.392
17.6409  327.054
17.6704  323.712
17.6999  319.914
17.7293  317.331
17.7588  315.29
17.7883  314.129
17.8178  314.433
17.8473  312.742
17.8767  312.138
17.9062  313.316
17.9357  312.855
17.9652  312.345
17.9947  314.217
18.0242  313.138
18.0536  313.815
18.0831  313.766
18.1126  313.798
18.1421  312.797
18.1716  313.097
18.201  311.946
18.2305  313.113
18.26  314.908
18.2895  314.424
18.319  312.162
18.3485  310.915
18.3779  310.071
18.4074  309.865
18.4369  308.736
18.4664  307.553
18.4959  307.43
18.5253  307.15
18.5548  306.816
18.5843  306.558
18.6138  306.326
18.6433  306.295
18.6728  306.838
18.7022  304.584
18.7317  305.343
18.7612  305.268
18.7907  305.535
18.8202  306.2
18.8496  306.454
18.8791  306.072
18.9086  305.367
18.9381  304.983
18.9676  304.769
18.997  306.251
19.0265  306.685
19.056  306.544
19.0855  305.872
19.115  305.094
19.1445  306.081
19.1739  305.605
19.2034  304.951
19.2329  305.48
19.2624  306.036
19.2919  305.988
19.3213  307.237
19.3508  305.482
19.3803  305.494
19.4098  305.954
19.4393  306.267
19.4688  306.001
19.4982  304.793
19.5277  305.376
19.5572  306.702
19.5867  307.329
19.6162  308.616
19.6456  308.543
19.6751  310.716
19.7046  311.698
19.7341  311.727
19.7636  310.825
19.7931  311.174
19.8225  311.469
19.852  310.203
19.8815  311.423
19.911  311.964
19.9405  312.754
19.9699  312.115
19.9994  311.534
20.0289  309.311
20.0584  308.861
20.0879  309.729
20.1173  312.188
20.1468  313.226
20.1763  315.076
20.2058  320.171
20.2353  326.079
20.2648  333.782
20.2942  342.214
20.3237  347.114
20.3532  346.426
20.3827  341.635
20.4122  331.033
20.4416  322.594
20.4711  317.47
20.5006  313.152
20.5301  309.623
20.5596  307.16
20.5891  305.48
20.6185  305.771
20.648  306.285
20.6775  305.601
20.707  304.345
20.7365  305.273
20.7659  304.365
20.7954  303.667
20.8249  304.077
20.8544  304.978
20.8839  305.159
20.9134  306.527
20.9428  306.011
20.9723  305.399
21.0018  307.336
21.0313  307.732
21.0608  309.362
21.0902  310.022
21.1197  311.127
21.1492  310.553
21.1787  310.25
21.2082  308.169
21.2377  309.082
21.2671  308.953
21.2966  307.709
21.3261  308.197
21.3556  307.515
21.3851  306.626
21.4145  306.692
21.444  308.038
21.4735  307.768
21.503  306.741
21.5325  306.866
21.5619  306.834
21.5914  306.963
21.6209  306.304
21.6504  306.499
21.6799  305.995
21.7094  308.263
21.7388  308.743
21.7683  311.035
21.7978  310.791
21.8273  310.263
21.8568  313.317
21.8862  315.51
21.9157  318.249
21.9452  323.528
21.9747  323.304
22.0042  325.404
22.0337  327.904
22.0631  327.118
22.0926  325.578
22.1221  321.867
22.1516  318.962
22.1811  315.749
22.2105  315.88
22.24  313.641
22.2695  314.462
22.299  313.833
22.3285  316.415
22.358  316.891
22.3874  317.397
22.4169  317.521
22.4464  316.585
22.4759  317.655
22.5054  319.326
22.5348  322.447
22.5643  325.579
22.5938  328.244
22.6233  334.191
22.6528  335.703
22.6822  340.285
22.7117  344.735
22.7412  349.203
22.7707  351.009
22.8002  345.754
22.8297  340.257
22.8591  334.812
22.8886  330.253
22.9181  326.203
22.9476  323.797
22.9771  322.715
23.0065  321.248
23.036  319.402
23.0655  319.735
23.095  319.1
23.1245  319.922
23.154  320.111
23.1834  320.785
23.2129  320.553
23.2424  319.893
23.2719  320.938
23.3014  321.586
23.3308  320.814
23.3603  320.646
23.3898  320.978
23.4193  319.835
23.4488  321.441
23.4783  322.798
23.5077  320.714
23.5372  321.493
23.5667  320.174
23.5962  320.582
23.6257  317.216
23.6551  316.962
23.6846  317.204
23.7141  316.906
23.7436  316.704
23.7731  318.133
23.8025  319.989
23.832  320.822
23.8615  322.618
23.891  324.642
23.9205  325.684
23.95  326.539
23.9794  327.14
24.0089  325.787
24.0384  326.28
24.0679  325.339
24.0974  323.845
24.1268  323.427
24.1563  323.659
24.1858  325.601
24.2153  325.589
24.2448  328.885
24.2743  332.583
24.3037  335.087
24.3332  336.973
24.3627  334.868
24.3922  336.103
24.4217  334.006
24.4511  330.097
24.4806  327.819
24.5101  325.686
24.5396  323.985
24.5691  324.08
24.5986  325.262
24.628  324.423
24.6575  326.726
24.687  328.046
24.7165  327.106
24.746  328.013
24.7754  329.481
24.8049  333.508
24.8344  333.168
24.8639  332.395
24.8934  336.926
24.9228  339.322
24.9523  341.004
24.9818  341.481
25.0113  337.889
25.0408  334.543
25.0703  332.174
25.0997  330.026
25.1292  328.872
25.1587  327.259
25.1882  331.313
25.2177  332.013
25.2471  331.907
25.2766  330.093
25.3061  328.802
25.3356  325.284
25.3651  324.28
25.3946  322.592
25.424  321.47
25.4535  320.937
25.483  321.913
25.5125  322.351
25.542  321.071
25.5714  321.791
25.6009  321.119
25.6304  319.432
25.6599  320.229
25.6894  320.396
25.7189  321.955
25.7483  322.114
25.7778  320.41
25.8073  319.27
25.8368  319.244
25.8663  318.978
25.8957  322.098
25.9252  321.875
25.9547  321.362
25.9842  321.284
26.0137  322.281
26.0431  324.51
26.0726  325.397
26.1021  325.284
26.1316  327.45
26.1611  325.112
26.1906  324.471
26.22  323.245
26.2495  322.589
26.279  320.993
26.3085  321.991
26.338  320.299
26.3674  318.501
26.3969  318.164
26.4264  317.983
26.4559  318.254
26.4854  317.379
26.5149  317.184
26.5443  317.165
26.5738  316.918
26.6033  316.199
26.6328  316.986
26.6623  315.347
26.6917  316.674
26.7212  314.132
26.7507  313.578
26.7802  313.505
26.8097  313.464
26.8392  313.819
26.8686  313.698
26.8981  309.372
26.9276  309.112
26.9571  308.934
26.9866  309.462
27.016  309.978
27.0455  308.753
27.075  309.26
27.1045  307.772
27.134  308.546
27.1634  308.911
27.1929  308.673
27.2224  308.656
27.2519  309.84
27.2814  308.676
27.3109  308.359
27.3403  310.167
27.3698  308.453
27.3993  307.878
27.4288  307.86
27.4583  308.549
27.4877  308.678
27.5172  307.498
27.5467  308.153
27.5762  307.823
27.6057  307.884
27.6352  306.97
27.6646  307.194
27.6941  306.933
27.7236  306.126
27.7531  305.774
27.7826  305.282
27.812  305.193
27.8415  305.109
27.871  304.64
27.9005  303.755
27.93  303.234
27.9595  304.686
27.9889  302.429
28.0184  301.799
28.0479  302.407
28.0774  302.249
28.1069  301.104
28.1363  302.284
28.1658  299.833
28.1953  301.688
28.2248  301.21
28.2543  301.518
28.2837  301.533
28.3132  302.823
28.3427  300.537
28.3722  301.302
28.4017  301.362
28.4312  302.411
28.4606  301.729
28.4901  300.114
28.5196  300.772
28.5491  300.742
28.5786  301.843
28.608  300.353
28.6375  300.618
28.667  301.666
28.6965  301.05
28.726  301.271
28.7555  300.676
28.7849  301.403
28.8144  302.881
28.8439  303.786
28.8734  305.413
28.9029  305.253
28.9323  306.557
28.9618  305.797
28.9913  304.532
29.0208  302.857
29.0503  300.336
29.0798  300.741
29.1092  300.473
29.1387  299.892
29.1682  299.821
29.1977  299.773
29.2272  298.913
29.2566  298.56
29.2861  299.318
29.3156  299.244
29.3451  298.194
29.3746  297.699
29.404  297.743
29.4335  297.725
29.463  297.113
29.4925  296.673
29.522  297.646
29.5515  296.585
29.5809  298.014
29.6104  296.848
29.6399  293.923
29.6694  293.345
29.6989  293.953
29.7283  294.605
29.7578  291.322
29.7873  291.775
29.8168  292.102
29.8463  289.51
29.8758  289.242
29.9052  286.359
29.9347  285.805
29.9642  283.149
29.9937  281.1
30.0232  278.444
30.0526  275.213
30.0821  273.635
30.1116  269.915
30.1411  266.273
30.1706  262.85
30.2001  258.174
30.2295  252.125
30.259  245.529
30.2885  238.738
30.318  232.678
30.3475  228.911
30.3769  223.823
30.4064  222.112
30.4359  220.134
30.4654  215.621
30.4949  213.545
30.5243  210.747
30.5538  206.911
30.5833  203.558
30.6128  199.976
30.6423  197.023
30.6718  194.487
30.7012  192.02
30.7307  188.733
30.7602  184.656
30.7897  180.928
30.8192  178.179
30.8486  175.385
30.8781  171.057
30.9076  167.073
30.9371  163.935
30.9666  161.334
30.9961  158.604
31.0255  154.295
31.055  151.592
31.0845  149.243
31.114  144.934
31.1435  142.228
31.1729  139.052
31.2024  135.73
31.2319  132.204
31.2614  129.324
31.2909  125.89
31.3204  123.353
31.3498  118.703
31.3793  114.246
31.4088  112.392
31.4383  109.61
31.4678  106.895
31.4972  103.866
31.5267  101.639
31.5562  98.3414
31.5857  95.2865
31.6152  93.0878
31.6446  90.4336
31.6741  87.2306
31.7036  82.7558
31.7331  79.9315
31.7626  77.0908
31.7921  75.5393
31.8215  71.5336
31.851  72.1276
31.8805  67.4729
31.91  61.8323
31.9395  64.6125
31.9689  61.4115
31.9984  56.9977
32.0279  43.1117
32.0574  37.6457
32.0869  42.4297