File: Figure1_XRD/068.xy
# == pyFAI calibration ==
# Distance Sample to Detector: 0.115075 m
# PONI: 5.477e-03, 4.716e-03 m
# Rotations: 0.004686 0.005536 0.000000 rad
#
# == Fit2d calibration ==
# Distance Sample-beamCenter: 115.078 mm
# Center: x=55.690, y=81.516 pix
# Tilt: 0.416 deg  TiltPlanRot: 130.247 deg
#
# Detector Detector	 Spline= None	 PixelSize= 7.500e-05, 7.500e-05 m
#    Detector has a mask: False
#    Detector has a dark current: False
#    detector has a flat field: False
#
# Wavelength: 4.833e-11 m
# Mask applied: None
# Dark current applied: None
# Flat field applied: None
# Polarization factor: None
# Normalization factor: None
#
# 2th_deg	 I
1.13121  67.9082
1.16069  92.0961
1.19017  114.089
1.21965  135.068
1.24914  147.717
1.27862  165.778
1.3081  172.486
1.33758  183.139
1.36706  188.529
1.39654  194.726
1.42603  198.218
1.45551  203.499
1.48499  208.47
1.51447  213.431
1.54395  216.699
1.57343  221.957
1.60291  224.027
1.6324  228.414
1.66188  234.916
1.69136  232.119
1.72084  236.338
1.75032  239.58
1.7798  238.714
1.80929  241.222
1.83877  243.46
1.86825  243.946
1.89773  245.369
1.92721  248.413
1.95669  252.24
1.98618  255.329
2.01566  256.769
2.04514  261.21
2.07462  264.087
2.1041  266.724
2.13358  268.382
2.16307  271.441
2.19255  273.829
2.22203  276.034
2.25151  276.911
2.28099  276.753
2.31047  277.339
2.33995  278.118
2.36944  280.262
2.39892  282.05
2.4284  283.866
2.45788  282.121
2.48736  281.731
2.51684  282.159
2.54633  282.549
2.57581  283.362
2.60529  283.525
2.63477  281.552
2.66425  281.533
2.69373  281.462
2.72322  280.206
2.7527  281.364
2.78218  280.056
2.81166  278.489
2.84114  278.295
2.87062  277.437
2.9001  276.512
2.92959  276.564
2.95907  276.502
2.98855  275.819
3.01803  275.086
3.04751  275.822
3.07699  275.737
3.10648  274.623
3.13596  274.569
3.16544  273.699
3.19492  275.188
3.2244  275.552
3.25388  273.399
3.28337  273
3.31285  273.43
3.34233  273.312
3.37181  273.126
3.40129  271.403
3.43077  272.044
3.46025  270.888
3.48974  269.86
3.51922  270.754
3.5487  269.911
3.57818  267.861
3.60766  269.083
3.63714  267.91
3.66663  265.216
3.69611  263.42
3.72559  265.408
3.75507  268.008
3.78455  268.691
3.81403  271.288
3.84352  274.833
3.873  277.211
3.90248  273.642
3.93196  270.049
3.96144  267.204
3.99092  266.722
4.0204  264.635
4.04989  261.374
4.07937  259.441
4.10885  259.116
4.13833  258.232
4.16781  254.905
4.19729  255.216
4.22678  254.601
4.25626  252.787
4.28574  251.882
4.31522  250.813
4.3447  250.478
4.37418  247.872
4.40367  246.345
4.43315  246.205
4.46263  246.292
4.49211  244.66
4.52159  243.157
4.55107  243.134
4.58055  243.303
4.61004  242.609
4.63952  240.964
4.669  240.682
4.69848  241.275
4.72796  239.62
4.75744  239.361
4.78693  239.507
4.81641  238.787
4.84589  237.565
4.87537  236.36
4.90485  236.749
4.93433  237.743
4.96382  235.771
4.9933  235.283
5.02278  235.752
5.05226  235.939
5.08174  235.046
5.11122  233.749
5.14071  233.828
5.17019  233.09
5.19967  232.425
5.22915  232.345
5.25863  231.454
5.28811  231.285
5.31759  230.203
5.34708  230.053
5.37656  230.774
5.40604  230.58
5.43552  229.777
5.465  229.012
5.49448  229.264
5.52397  228.815
5.55345  228.751
5.58293  228.138
5.61241  228.787
5.64189  229.095
5.67137  229.282
5.70086  228.705
5.73034  229.99
5.75982  231.674
5.7893  231.988
5.81878  230.702
5.84826  228.142
5.87774  227.92
5.90723  228.47
5.93671  228.605
5.96619  228.504
5.99567  227.282
6.02515  227.5
6.05463  228.124
6.08412  227.983
6.1136  227.085
6.14308  226.188
6.17256  228.342
6.20204  227.926
6.23152  228.242
6.26101  227.659
6.29049  228.359
6.31997  228.512
6.34945  227.784
6.37893  228.652
6.40841  228.929
6.43789  228.686
6.46738  228.226
6.49686  230.149
6.52634  231.089
6.55582  231.257
6.5853  231.785
6.61478  231.719
6.64427  231.15
6.67375  230.459
6.70323  230.54
6.73271  231.141
6.76219  231.404
6.79167  230.918
6.82116  231.622
6.85064  232.274
6.88012  232.143
6.9096  232.431
6.93908  233.312
6.96856  232.386
6.99804  232.718
7.02753  233.96
7.05701  234.382
7.08649  234.039
7.11597  234.778
7.14545  234.888
7.17493  233.757
7.20442  234.067
7.2339  233.685
7.26338  234.568
7.29286  234.879
7.32234  235.337
7.35182  235.863
7.38131  236.223
7.41079  236.232
7.44027  236.078
7.46975  237.126
7.49923  238.001
7.52871  238.453
7.55819  238.689
7.58768  239.453
7.61716  239.389
7.64664  239.291
7.67612  240.073
7.7056  240.069
7.73508  240.322
7.76457  240.063
7.79405  241.023
7.82353  242.085
7.85301  240.94
7.88249  241.816
7.91197  242.347
7.94146  243.355
7.97094  243.482
8.00042  244.981
8.0299  246.765
8.05938  246.37
8.08886  248.038
8.11835  248.626
8.14783  250.311
8.17731  250.813
8.20679  253.672
8.23627  256.03
8.26575  259.555
8.29523  264.883
8.32472  274.345
8.3542  278.509
8.38368  285.624
8.41316  297.444
8.44264  311.494
8.47212  324.604
8.50161  342.853
8.53109  360.379
8.56057  358.105
8.59005  337.556
8.61953  314.039
8.64901  297.534
8.6785  285.365
8.70798  278.878
8.73746  272.981
8.76694  273.038
8.79642  275.999
8.8259  275.812
8.85538  275.394
8.88487  275.138
8.91435  276.951
8.94383  279.245
8.97331  281.695
9.00279  281.9
9.03227  283.871
9.06176  284.849
9.09124  284.757
9.12072  285.408
9.1502  285.841
9.17968  287.182
9.20916  288.412
9.23865  290.962
9.26813  292.34
9.29761  293.076
9.32709  294.208
9.35657  294.48
9.38605  296.113
9.41553  297.782
9.44502  298.717
9.4745  298.936
9.50398  300.72
9.53346  302.429
9.56294  304.399
9.59242  304.267
9.62191  304.444
9.65139  304.623
9.68087  303.51
9.71035  304.374
9.73983  304.003
9.76931  304.416
9.7988  304.823
9.82828  305.642
9.85776  308.531
9.88724  310.918
9.91672  308.33
9.9462  314.858
9.97568  329.541
10.0052  355.32
10.0346  390.916
10.0641  419.55
10.0936  418.197
10.1231  392.798
10.1526  369.769
10.1821  364.72
10.2115  368.936
10.241  369.849
10.2705  360.829
10.3  347.61
10.3295  332.506
10.3589  318.229
10.3884  310.881
10.4179  317.401
10.4474  319.906
10.4769  311.572
10.5064  304.439
10.5358  299.38
10.5653  297.08
10.5948  293.02
10.6243  290.579
10.6538  287.645
10.6832  285.914
10.7127  286.696
10.7422  285.547
10.7717  284.016
10.8012  283.045
10.8307  282.052
10.8601  281.19
10.8896  280.882
10.9191  282.357
10.9486  280.647
10.9781  280.536
11.0075  281.15
11.037  281.234
11.0665  281.982
11.096  281.417
11.1255  282.381
11.1549  282.692
11.1844  284.158
11.2139  285.318
11.2434  285.586
11.2729  285.792
11.3024  288.101
11.3318  289.263
11.3613  289.872
11.3908  290.976
11.4203  289.347
11.4498  290.365
11.4792  289.277
11.5087  289.32
11.5382  292.139
11.5677  295.888
11.5972  302.865
11.6267  315.657
11.6561  333.299
11.6856  352.168
11.7151  365.747
11.7446  369.938
11.7741  356.224
11.8035  329.729
11.833  308.163
11.8625  294.323
11.892  288.798
11.9215  286.201
11.951  285.011
11.9804  284.239
12.0099  283.687
12.0394  284.721
12.0689  284.705
12.0984  283.989
12.1278  283.293
12.1573  284.827
12.1868  285.463
12.2163  285.887
12.2458  285.325
12.2752  284.526
12.3047  285.585
12.3342  285.905
12.3637  286.857
12.3932  288.855
12.4227  289.909
12.4521  290.591
12.4816  291.689
12.5111  292.707
12.5406  294.676
12.5701  295.356
12.5995  296.126
12.629  296.964
12.6585  298.386
12.688  298.893
12.7175  299.167
12.747  301.935
12.7764  302.722
12.8059  305.448
12.8354  307.308
12.8649  307.116
12.8944  304.394
12.9238  303.579
12.9533  302.019
12.9828  301.887
13.0123  302.306
13.0418  304.304
13.0713  305.069
13.1007  307.671
13.1302  313.358
13.1597  321.008
13.1892  330.828
13.2187  348.193
13.2481  375.294
13.2776  397.797
13.3071  405.849
13.3366  397.56
13.3661  375.833
13.3955  351.347
13.425  333.926
13.4545  322.142
13.484  316.813
13.5135  316.067
13.543  314.232
13.5724  314.879
13.6019  316.58
13.6314  317.676
13.6609  317.941
13.6904  319.705
13.7198  324.372
13.7493  330.888
13.7788  341.805
13.8083  343.849
13.8378  342.944
13.8673  337.923
13.8967  334.299
13.9262  330.057
13.9557  327.491
13.9852  324.093
14.0147  320.497
14.0441  320.488
14.0736  320.575
14.1031  319.958
14.1326  320.373
14.1621  321.313
14.1916  322.369
14.221  324.97
14.2505  326.466
14.28  327.421
14.3095  329.373
14.339  336.696
14.3684  347.333
14.3979  364.14
14.4274  387.407
14.4569  405.194
14.4864  411.443
14.5158  403.484
14.5453  386.384
14.5748  370.653
14.6043  362.448
14.6338  357.164
14.6633  354.391
14.6927  351.624
14.7222  347.77
14.7517  344.372
14.7812  339.492
14.8107  334.209
14.8401  330.342
14.8696  328.303
14.8991  329.499
14.9286  332.037
14.9581  336.74
14.9876  339.321
15.017  342.561
15.0465  343.901
15.076  340.146
15.1055  334.407
15.135  329.852
15.1644  325.576
15.1939  323.64
15.2234  323.074
15.2529  322.348
15.2824  321.962
15.3119  323.065
15.3413  323.062
15.3708  322.681
15.4003  321.511
15.4298  321.923
15.4593  322.171
15.4887  322.77
15.5182  322.558
15.5477  323.109
15.5772  323.385
15.6067  324.865
15.6361  326.142
15.6656  326.087
15.6951  323.846
15.7246  322.85
15.7541  320.596
15.7836  321.006
15.813  320.987
15.8425  319.755
15.872  319.112
15.9015  319.662
15.931  318.597
15.9604  318.305
15.9899  319.404
16.0194  319.568
16.0489  318.34
16.0784  319.723
16.1079  319.895
16.1373  319.71
16.1668  318.892
16.1963  319.91
16.2258  321.058
16.2553  322.379
16.2847  324.494
16.3142  325.491
16.3437  326.589
16.3732  326.599
16.4027  326.623
16.4322  326.935
16.4616  326.808
16.4911  326.751
16.5206  325.644
16.5501  326.643
16.5796  326.109
16.609  327.38
16.6385  328.187
16.668  329.245
16.6975  331.498
16.727  334.71
16.7564  338.075
16.7859  342.853
16.8154  346.134
16.8449  345.393
16.8744  342.021
16.9039  335.029
16.9333  329.328
16.9628  327.081
16.9923  326.178
17.0218  325.777
17.0513  325.66
17.0807  325.288
17.1102  325.303
17.1397  325.266
17.1692  327.092
17.1987  327.772
17.2282  329.217
17.2576  329.65
17.2871  329.541
17.3166  328.615
17.3461  328.717
17.3756  328.167
17.405  328.71
17.4345  328.563
17.464  328.934
17.4935  330.867
17.523  330.998
17.5525  333.528
17.5819  333.91
17.6114  335.385
17.6409  339.84
17.6704  345.371
17.6999  348.67
17.7293  350.182
17.7588  351.547
17.7883  350.104
17.8178  348.026
17.8473  346.635
17.8767  343.196
17.9062  340.294
17.9357  337.642
17.9652  335.315
17.9947  333.493
18.0242  331.998
18.0536  331.796
18.0831  331.192
18.1126  331.064
18.1421  331.03
18.1716  331.433
18.201  329.512
18.2305  330.444
18.26  332.027
18.2895  331.747
18.319  332.897
18.3485  334.015
18.3779  335.453
18.4074  334.424
18.4369  334.534
18.4664  335.813
18.4959  333.771
18.5253  330.737
18.5548  328.48
18.5843  327.7
18.6138  328.209
18.6433  325.976
18.6728  325.372
18.7022  324.73
18.7317  325.275
18.7612  324.11
18.7907  323.594
18.8202  324.509
18.8496  323.513
18.8791  323.563
18.9086  324.196
18.9381  324.271
18.9676  324.006
18.997  323.386
19.0265  322.925
19.056  324.127
19.0855  323.697
19.115  323.421
19.1445  323.931
19.1739  323.501
19.2034  323.046
19.2329  323.464
19.2624  323.071
19.2919  323.615
19.3213  322.894
19.3508  323.654
19.3803  323.228
19.4098  324.216
19.4393  323.778
19.4688  322.497
19.4982  323.738
19.5277  323.045
19.5572  323.419
19.5867  323.158
19.6162  322.267
19.6456  323.675
19.6751  324.228
19.7046  324.097
19.7341  326.097
19.7636  326.502
19.7931  324.652
19.8225  325.336
19.852  327.067
19.8815  329.527
19.911  330.623
19.9405  330.364
19.9699  331.153
19.9994  329.505
20.0289  330.076
20.0584  329.649
20.0879  330.679
20.1173  334.261
20.1468  336.326
20.1763  342.03
20.2058  346.581
20.2353  353.188
20.2648  360.803
20.2942  370.328
20.3237  377.441
20.3532  378.18
20.3827  372.366
20.4122  360.714
20.4416  350.584
20.4711  343.168
20.5006  337.349
20.5301  333.463
20.5596  330.691
20.5891  328.09
20.6185  327.624
20.648  326.44
20.6775  326.469
20.707  326.725
20.7365  324.825
20.7659  323.925
20.7954  323.54
20.8249  323.372
20.8544  323.276
20.8839  323.991
20.9134  323.653
20.9428  323.006
20.9723  324.484
21.0018  324.464
21.0313  324.865
21.0608  324.088
21.0902  322.228
21.1197  323.885
21.1492  325.554
21.1787  327.22
21.2082  326.262
21.2377  326.839
21.2671  329.046
21.2966  328.739
21.3261  329.976
21.3556  330.06
21.3851  329.503
21.4145  328.773
21.444  328.597
21.4735  329.335
21.503  329.356
21.5325  327.506
21.5619  324.949
21.5914  325.487
21.6209  326.286
21.6504  325.057
21.6799  323.885
21.7094  324.933
21.7388  325.587
21.7683  326.687
21.7978  326.193
21.8273  326
21.8568  325.723
21.8862  327.352
21.9157  328.933
21.9452  329.861
21.9747  330.911
22.0042  332.927
22.0337  334.098
22.0631  334.865
22.0926  336.882
22.1221  337.584
22.1516  339.001
22.1811  343.164
22.2105  347.549
22.24  349.338
22.2695  349.961
22.299  346.405
22.3285  342.914
22.358  340.973
22.3874  340.607
22.4169  339.097
22.4464  340.231
22.4759  339.359
22.5054  338.554
22.5348  338.684
22.5643  338.825
22.5938  337.844
22.6233  338.322
22.6528  339.8
22.6822  340.129
22.7117  341.576
22.7412  345.067
22.7707  348.259
22.8002  345.29
22.8297  349.699
22.8591  356.413
22.8886  363.491
22.9181  370.463
22.9476  374.854
22.9771  374.03
23.0065  369.519
23.036  364.789
23.0655  358.296
23.095  352.145
23.1245  349.953
23.154  348.95
23.1834  348.804
23.2129  346.69
23.2424  345.265
23.2719  344.601
23.3014  344.379
23.3308  344.324
23.3603  345.84
23.3898  345.377
23.4193  346.395
23.4488  349.578
23.4783  350.866
23.5077  349.311
23.5372  348.259
23.5667  347.11
23.5962  345.488
23.6257  341.48
23.6551  341.152
23.6846  340.161
23.7141  339.298
23.7436  338.433
23.7731  338.425
23.8025  339.597
23.832  339.384
23.8615  341.725
23.891  341.803
23.9205  343.842
23.95  347.162
23.9794  348.78
24.0089  348.07
24.0384  348.722
24.0679  346.853
24.0974  343.941
24.1268  341.308
24.1563  341.493
24.1858  343.359
24.2153  345.213
24.2448  347.521
24.2743  352.532
24.3037  356.833
24.3332  357.48
24.3627  359.774
24.3922  361.318
24.4217  358.228
24.4511  355.344
24.4806  348.662
24.5101  342.654
24.5396  340.18
24.5691  336.408
24.5986  335.619
24.628  335.171
24.6575  335.207
24.687  335.18
24.7165  334.496
24.746  335.984
24.7754  337.449
24.8049  336.983
24.8344  337.633
24.8639  338.161
24.8934  340.066
24.9228  341.696
24.9523  342.654
24.9818  343.852
25.0113  347.772
25.0408  349.103
25.0703  353.578
25.0997  357.152
25.1292  362.226
25.1587  363.856
25.1882  363.924
25.2177  361.348
25.2471  357.632
25.2766  356.473
25.3061  354.859
25.3356  351.22
25.3651  351.383
25.3946  351.156
25.424  352.318
25.4535  353.474
25.483  352.329
25.5125  348.326
25.542  346.057
25.5714  344.363
25.6009  344.898
25.6304  342.656
25.6599  340.736
25.6894  339.346
25.7189  340.318
25.7483  340.876
25.7778  339.085
25.8073  338.79
25.8368  336.781
25.8663  335.972
25.8957  335.281
25.9252  336.816
25.9547  336.75
25.9842  336.59
26.0137  337.158
26.0431  337.345
26.0726  336.851
26.1021  334.718
26.1316  336.231
26.1611  337.428
26.1906  335.949
26.22  335.584
26.2495  334.968
26.279  335.818
26.3085  336.724
26.338  335.707
26.3674  335.68
26.3969  337.822
26.4264  338.573
26.4559  339.188
26.4854  339.033
26.5149  341.384
26.5443  340.841
26.5738  343.36
26.6033  346.088
26.6328  342.857
26.6623  336.9
26.6917  341.038
26.7212  333.838
26.7507  336.104
26.7802  334.404
26.8097  333.988
26.8392  332.798
26.8686  333.764
26.8981  331.346
26.9276  330.826
26.9571  331.561
26.9866  331.688
27.016  335.946
27.0455  338.927
27.075  337.349
27.1045  337.431
27.134  335.568
27.1634  335.504
27.1929  333.505
27.2224  332.19
27.2519  333.091
27.2814  333.012
27.3109  331.174
27.3403  331.629
27.3698  329.83
27.3993  330.767
27.4288  330.487
27.4583  328.622
27.4877  328.468
27.5172  328.305
27.5467  328.212
27.5762  328.897
27.6057  328.932
27.6352  328.731
27.6646  328.587
27.6941  328.974
27.7236  328.166
27.7531  327.632
27.7826  329.168
27.812  328.223
27.8415  329.29
27.871  329.946
27.9005  327.367
27.93  327.557
27.9595  329.012
27.9889  327.589
28.0184  326.474
28.0479  326.387
28.0774  325.263
28.1069  324.441
28.1363  323.962
28.1658  323.09
28.1953  323.315
28.2248  323.148
28.2543  323.344
28.2837  321.208
28.3132  321.901
28.3427  321.892
28.3722  321.322
28.4017  319.833
28.4312  320.915
28.4606  322.59
28.4901  320.223
28.5196  320.727
28.5491  320.566
28.5786  319.614
28.608  320.281
28.6375  320.69
28.667  321.036
28.6965  321.135
28.726  320.331
28.7555  319.996
28.7849  320.755
28.8144  320.483
28.8439  319.236
28.8734  320.059
28.9029  319.486
28.9323  320.205
28.9618  320.14
28.9913  320.395
29.0208  320.576
29.0503  320.935
29.0798  322.758
29.1092  323.634
29.1387  323.85
29.1682  326.084
29.1977  324.8
29.2272  323.576
29.2566  322.169
29.2861  322.189
29.3156  320.744
29.3451  318.13
29.3746  319.753
29.404  319.417
29.4335  319.725
29.463  319.479
29.4925  318.68
29.522  316.422
29.5515  316.081
29.5809  316.569
29.6104  315.464
29.6399  315.281
29.6694  315.314
29.6989  314.126
29.7283  315.354
29.7578  313.82
29.7873  311.732
29.8168  310.186
29.8463  310.259
29.8758  308.304
29.9052  303.484
29.9347  302.676
29.9642  300.024
29.9937  295.681
30.0232  293.523
30.0526  291.062
30.0821  285.899
30.1116  284.065
30.1411  279.269
30.1706  276.245
30.2001  270.272
30.2295  263.896
30.259  256.353
30.2885  249.537
30.318  244.423
30.3475  242.791
30.3769  238.155
30.4064  235.246
30.4359  231.638
30.4654  229.585
30.4949  226.262
30.5243  223.873
30.5538  219.111
30.5833  215.866
30.6128  213.878
30.6423  209.558
30.6718  206.387
30.7012  203.69
30.7307  200.364
30.7602  196.548
30.7897  193.061
30.8192  189.789
30.8486  184.252
30.8781  182.298
30.9076  178.719
30.9371  174.88
30.9666  170.784
30.9961  167.472
31.0255  164.7
31.055  161.745
31.0845  158.333
31.114  155.636
31.1435  153.987
31.1729  150.729
31.2024  144.694
31.2319  140.568
31.2614  137.246
31.2909  133.573
31.3204  129.643
31.3498  126.478
31.3793  124.547
31.4088  120.653
31.4383  116.773
31.4678  113.867
31.4972  111.489
31.5267  107.916
31.5562  104.715
31.5857  101.077
31.6152  99.9459
31.6446  96.555
31.6741  90.1393
31.7036  89.0791
31.7331  85.8195
31.7626  83.7798
31.7921  82.6506
31.8215  77.5695
31.851  75.2286
31.8805  75.8815
31.91  74.1802
31.9395  70.7896
31.9689  68.1877
31.9984  62.6285
32.0279  61.5882
32.0574  40.7828
32.0869  40.7935