File: Figure1_XRD/071.xy
# == pyFAI calibration ==
# Distance Sample to Detector: 0.115075 m
# PONI: 5.477e-03, 4.716e-03 m
# Rotations: 0.004686 0.005536 0.000000 rad
#
# == Fit2d calibration ==
# Distance Sample-beamCenter: 115.078 mm
# Center: x=55.690, y=81.516 pix
# Tilt: 0.416 deg  TiltPlanRot: 130.247 deg
#
# Detector Detector	 Spline= None	 PixelSize= 7.500e-05, 7.500e-05 m
#    Detector has a mask: False
#    Detector has a dark current: False
#    detector has a flat field: False
#
# Wavelength: 4.833e-11 m
# Mask applied: None
# Dark current applied: None
# Flat field applied: None
# Polarization factor: None
# Normalization factor: None
#
# 2th_deg	 I
1.13121  58.7487
1.16069  90.8683
1.19017  117.357
1.21965  139.239
1.24914  151.986
1.27862  166.937
1.3081  171.737
1.33758  184.584
1.36706  194.485
1.39654  199.91
1.42603  202.362
1.45551  210.577
1.48499  216.69
1.51447  221.254
1.54395  223.48
1.57343  225.117
1.60291  228.126
1.6324  234.587
1.66188  237.817
1.69136  238.322
1.72084  242.67
1.75032  243.255
1.7798  244.398
1.80929  246.187
1.83877  249.361
1.86825  251.371
1.89773  252.573
1.92721  256.519
1.95669  259.927
1.98618  261.245
2.01566  266.167
2.04514  269.708
2.07462  272.958
2.1041  275.994
2.13358  278.118
2.16307  280.113
2.19255  281.491
2.22203  284.974
2.25151  286.749
2.28099  286.208
2.31047  287.666
2.33995  288.215
2.36944  289.39
2.39892  290.246
2.4284  291.772
2.45788  290.842
2.48736  290.26
2.51684  292.206
2.54633  291.064
2.57581  290.713
2.60529  290.672
2.63477  290.641
2.66425  289.84
2.69373  290.194
2.72322  289.655
2.7527  288.863
2.78218  288.02
2.81166  286.749
2.84114  287.67
2.87062  286.836
2.9001  286.528
2.92959  286.223
2.95907  283.956
2.98855  283.112
3.01803  283.409
3.04751  284.168
3.07699  283.952
3.10648  281.933
3.13596  280.271
3.16544  281.069
3.19492  283.642
3.2244  283.875
3.25388  280.694
3.28337  280.043
3.31285  280.688
3.34233  281.062
3.37181  280.55
3.40129  278.95
3.43077  278.19
3.46025  277.998
3.48974  279.237
3.51922  277.998
3.5487  276.038
3.57818  276.357
3.60766  275.832
3.63714  274.248
3.66663  272.208
3.69611  270.676
3.72559  270.559
3.75507  273.563
3.78455  276.323
3.81403  279.201
3.84352  280.018
3.873  280.56
3.90248  279.468
3.93196  278.361
3.96144  275.622
3.99092  273.956
4.0204  270.753
4.04989  268.508
4.07937  266.997
4.10885  265.309
4.13833  263.917
4.16781  262.938
4.19729  261.942
4.22678  260.621
4.25626  259.039
4.28574  258.391
4.31522  257.33
4.3447  255.502
4.37418  255.286
4.40367  254.666
4.43315  252.686
4.46263  252.108
4.49211  250.752
4.52159  250.198
4.55107  249.605
4.58055  249.646
4.61004  248.969
4.63952  249.589
4.669  248.704
4.69848  247.598
4.72796  246.919
4.75744  246.624
4.78693  245.269
4.81641  246.236
4.84589  245.467
4.87537  244.423
4.90485  244.279
4.93433  243.894
4.96382  243.294
4.9933  242.037
5.02278  241.861
5.05226  241.901
5.08174  240.925
5.11122  240.451
5.14071  240.411
5.17019  240.854
5.19967  239.698
5.22915  239.231
5.25863  237.97
5.28811  237.633
5.31759  237.212
5.34708  235.529
5.37656  235.795
5.40604  237.399
5.43552  236.515
5.465  236.559
5.49448  235.732
5.52397  236.184
5.55345  234.529
5.58293  234.305
5.61241  235.022
5.64189  234.855
5.67137  234.979
5.70086  236.062
5.73034  237.639
5.75982  238.128
5.7893  239.042
5.81878  238.565
5.84826  235.994
5.87774  235.112
5.90723  235.055
5.93671  234.273
5.96619  233.897
5.99567  233.827
6.02515  234.141
6.05463  234.182
6.08412  233.934
6.1136  233.442
6.14308  234.181
6.17256  234.865
6.20204  233.136
6.23152  233.505
6.26101  234.843
6.29049  234.958
6.31997  234.481
6.34945  234.521
6.37893  234.617
6.40841  235.889
6.43789  235.243
6.46738  236.247
6.49686  235.621
6.52634  235.397
6.55582  237.321
6.5853  237.567
6.61478  237.476
6.64427  236.491
6.67375  236.622
6.70323  237.389
6.73271  236.132
6.76219  236.914
6.79167  238.498
6.82116  238.715
6.85064  238.968
6.88012  238.195
6.9096  238.202
6.93908  238.811
6.96856  238.327
6.99804  239.126
7.02753  239.7
7.05701  241.223
7.08649  241.671
7.11597  240.674
7.14545  240.855
7.17493  241.166
7.20442  241.75
7.2339  242.03
7.26338  241.382
7.29286  239.339
7.32234  240.187
7.35182  242.161
7.38131  241.488
7.41079  243.149
7.44027  243.278
7.46975  243.621
7.49923  244.436
7.52871  244.896
7.55819  244.507
7.58768  244.644
7.61716  245.475
7.64664  247.031
7.67612  247.013
7.7056  246.893
7.73508  247.144
7.76457  247.786
7.79405  247.416
7.82353  247.856
7.85301  249.149
7.88249  249.616
7.91197  249.173
7.94146  250.122
7.97094  252.134
8.00042  251.227
8.0299  251.369
8.05938  252.883
8.08886  255.849
8.11835  255.969
8.14783  257.951
8.17731  259.417
8.20679  261.485
8.23627  264.446
8.26575  266.904
8.29523  271.078
8.32472  281.409
8.3542  284.365
8.38368  289.628
8.41316  303.278
8.44264  319.738
8.47212  334.262
8.50161  354.209
8.53109  371.966
8.56057  372.823
8.59005  352.343
8.61953  325.946
8.64901  307.062
8.6785  295.358
8.70798  287.5
8.73746  281.172
8.76694  280.877
8.79642  285.182
8.8259  283.924
8.85538  282.512
8.88487  282.117
8.91435  283.166
8.94383  286.673
8.97331  289.177
9.00279  290.987
9.03227  292.277
9.06176  292.35
9.09124  292.609
9.12072  294.256
9.1502  295.42
9.17968  296.059
9.20916  298.503
9.23865  300.701
9.26813  302.62
9.29761  302.439
9.32709  303.296
9.35657  304.354
9.38605  306.207
9.41553  307.106
9.44502  309.644
9.4745  310.365
9.50398  311.53
9.53346  313.568
9.56294  315.659
9.59242  314.136
9.62191  313.35
9.65139  314.512
9.68087  314.925
9.71035  314.183
9.73983  312.671
9.76931  312.491
9.7988  312.663
9.82828  313.902
9.85776  315.128
9.88724  316.905
9.91672  317.092
9.9462  322.375
9.97568  336.256
10.0052  361.799
10.0346  399.206
10.0641  435.421
10.0936  448.912
10.1231  427.784
10.1526  395.567
10.1821  381.7
10.2115  383.423
10.241  384.888
10.2705  379.903
10.3  365.204
10.3295  349.575
10.3589  333.922
10.3884  323.484
10.4179  327.117
10.4474  326.208
10.4769  317.959
10.5064  311.933
10.5358  306.424
10.5653  302.478
10.5948  299.307
10.6243  298.309
10.6538  296.66
10.6832  294.368
10.7127  292.655
10.7422  292.434
10.7717  291.464
10.8012  290.601
10.8307  288.937
10.8601  288.131
10.8896  287.97
10.9191  288.322
10.9486  287.92
10.9781  288.903
11.0075  288.755
11.037  288.281
11.0665  288.685
11.096  289.492
11.1255  290.652
11.1549  291.396
11.1844  291.68
11.2139  291.287
11.2434  292.807
11.2729  293.179
11.3024  295.571
11.3318  296.472
11.3613  297.757
11.3908  299.149
11.4203  298.091
11.4498  297.672
11.4792  299.357
11.5087  299.505
11.5382  300.983
11.5677  307.017
11.5972  313.797
11.6267  326.38
11.6561  344.679
11.6856  364.089
11.7151  380.888
11.7446  385.864
11.7741  370.448
11.8035  341.599
11.833  316.58
11.8625  303.698
11.892  297.927
11.9215  294.637
11.951  292.669
11.9804  292.601
12.0099  292.489
12.0394  294.01
12.0689  293.335
12.0984  292.354
12.1278  293.231
12.1573  294.795
12.1868  293.8
12.2163  293.708
12.2458  294.759
12.2752  294.235
12.3047  295.52
12.3342  293.529
12.3637  294.863
12.3932  296.38
12.4227  298.271
12.4521  299.343
12.4816  299.892
12.5111  302.075
12.5406  302.499
12.5701  302.543
12.5995  303.699
12.629  304.47
12.6585  306.223
12.688  307.194
12.7175  306.832
12.747  308.857
12.7764  311.014
12.8059  312.858
12.8354  314.574
12.8649  315.375
12.8944  311.485
12.9238  309.652
12.9533  309.374
12.9828  310.095
13.0123  311.609
13.0418  312.621
13.0713  314.571
13.1007  317.493
13.1302  322.28
13.1597  331.178
13.1892  343.158
13.2187  361.842
13.2481  388.567
13.2776  426.123
13.3071  458.489
13.3366  457.214
13.3661  420.335
13.3955  378.407
13.425  349.777
13.4545  334.501
13.484  326.458
13.5135  321.396
13.543  320.876
13.5724  322.587
13.6019  324.895
13.6314  325.07
13.6609  326.705
13.6904  330.571
13.7198  334.129
13.7493  341.22
13.7788  355.251
13.8083  358.235
13.8378  356.455
13.8673  352.032
13.8967  346.189
13.9262  340.953
13.9557  337.556
13.9852  333.851
14.0147  331.77
14.0441  329.922
14.0736  329.266
14.1031  329.035
14.1326  329.887
14.1621  330.131
14.1916  330.479
14.221  333.648
14.2505  336.059
14.28  336.389
14.3095  338.802
14.339  344.669
14.3684  351.813
14.3979  369.462
14.4274  393.379
14.4569  416.931
14.4864  428.884
14.5158  424.711
14.5453  406.618
14.5748  388.347
14.6043  378.304
14.6338  371.351
14.6633  367.941
14.6927  365.266
14.7222  361.841
14.7517  357.602
14.7812  353
14.8107  347.667
14.8401  342.813
14.8696  340.42
14.8991  339.875
14.9286  342.169
14.9581  346.406
14.9876  352.641
15.017  357.697
15.0465  359.245
15.076  354.718
15.1055  348.578
15.135  341.848
15.1644  336.863
15.1939  333.115
15.2234  331.999
15.2529  331.972
15.2824  329.819
15.3119  330.84
15.3413  332.179
15.3708  331.602
15.4003  332.004
15.4298  331.382
15.4593  331.632
15.4887  332.45
15.5182  332.337
15.5477  331.761
15.5772  331.706
15.6067  333.594
15.6361  333.942
15.6656  333.92
15.6951  333.597
15.7246  332.462
15.7541  332.076
15.7836  331.247
15.813  329.343
15.8425  328.186
15.872  327.513
15.9015  328.419
15.931  328.18
15.9604  327.612
15.9899  328.026
16.0194  329.026
16.0489  329.231
16.0784  329.421
16.1079  328.955
16.1373  330.053
16.1668  329.042
16.1963  329.673
16.2258  331.6
16.2553  332.338
16.2847  334.6
16.3142  335.851
16.3437  337.913
16.3732  338.629
16.4027  338.061
16.4322  338.133
16.4616  337.627
16.4911  336.834
16.5206  336.621
16.5501  337.552
16.5796  335.731
16.609  335.877
16.6385  338.339
16.668  340.058
16.6975  342.206
16.727  344.925
16.7564  348.673
16.7859  352.8
16.8154  357.304
16.8449  358.598
16.8744  354.703
16.9039  346.941
16.9333  341.409
16.9628  338.934
16.9923  336.877
17.0218  336.505
17.0513  335.538
17.0807  334.965
17.1102  335.061
17.1397  335.944
17.1692  335.602
17.1987  337.326
17.2282  337.521
17.2576  338.163
17.2871  338.792
17.3166  336.673
17.3461  335.902
17.3756  335.873
17.405  335.664
17.4345  336.349
17.464  337.88
17.4935  337.787
17.523  339.652
17.5525  341.479
17.5819  341.409
17.6114  342.954
17.6409  345.641
17.6704  349.495
17.6999  353.114
17.7293  359.103
17.7588  361.776
17.7883  360.07
17.8178  358.626
17.8473  358.694
17.8767  356.739
17.9062  351.941
17.9357  349.4
17.9652  344.718
17.9947  343.981
18.0242  342.093
18.0536  340.344
18.0831  339.843
18.1126  338.845
18.1421  340.178
18.1716  340.147
18.201  340.306
18.2305  341.618
18.26  342.026
18.2895  341.11
18.319  341.906
18.3485  343.541
18.3779  343.358
18.4074  344.858
18.4369  345.435
18.4664  344.291
18.4959  343.475
18.5253  341.135
18.5548  338.685
18.5843  336.544
18.6138  335.043
18.6433  334.691
18.6728  333.859
18.7022  334.291
18.7317  334.596
18.7612  332.796
18.7907  332.225
18.8202  332.277
18.8496  332.98
18.8791  331.799
18.9086  332.684
18.9381  332.482
18.9676  332.858
18.997  332.868
19.0265  332.864
19.056  331.775
19.0855  332.151
19.115  332.009
19.1445  332.48
19.1739  332.312
19.2034  332.635
19.2329  332.989
19.2624  332.032
19.2919  332.313
19.3213  332.48
19.3508  330.694
19.3803  331.529
19.4098  332.572
19.4393  333.273
19.4688  332.527
19.4982  332.457
19.5277  332.784
19.5572  332.466
19.5867  332.325
19.6162  331.893
19.6456  331.568
19.6751  332.797
19.7046  332.337
19.7341  332.708
19.7636  333.737
19.7931  333.321
19.8225  333.501
19.852  334.561
19.8815  336.873
19.911  337.059
19.9405  338.131
19.9699  339.242
19.9994  338.666
20.0289  339.007
20.0584  339.911
20.0879  340.233
20.1173  343.389
20.1468  345.03
20.1763  350.2
20.2058  356.513
20.2353  364.63
20.2648  373.596
20.2942  381.503
20.3237  389.884
20.3532  390.381
20.3827  384.67
20.4122  373.617
20.4416  362.361
20.4711  353.523
20.5006  347.349
20.5301  343.524
20.5596  339.848
20.5891  337.897
20.6185  337.313
20.648  337.758
20.6775  337.444
20.707  335.582
20.7365  334.145
20.7659  334.112
20.7954  334.07
20.8249  333.963
20.8544  332.497
20.8839  332.224
20.9134  330.95
20.9428  332.539
20.9723  332.16
21.0018  332.512
21.0313  332.037
21.0608  331.844
21.0902  332.024
21.1197  332.038
21.1492  332.473
21.1787  335.141
21.2082  334.741
21.2377  334.726
21.2671  335.579
21.2966  336.179
21.3261  335.798
21.3556  335.107
21.3851  337.116
21.4145  336.109
21.444  336.754
21.4735  337.018
21.503  337.166
21.5325  335.99
21.5619  334.666
21.5914  334.749
21.6209  334.179
21.6504  333.661
21.6799  332.794
21.7094  333.726
21.7388  334.527
21.7683  335.261
21.7978  334.918
21.8273  335.429
21.8568  335.204
21.8862  337.13
21.9157  338.657
21.9452  338.934
21.9747  339.513
22.0042  340.621
22.0337  342.741
22.0631  344.897
22.0926  346.051
22.1221  348.321
22.1516  351.939
22.1811  357.372
22.2105  362.136
22.24  365.07
22.2695  366.484
22.299  363.594
22.3285  360.082
22.358  355.174
22.3874  350.764
22.4169  348.637
22.4464  349.675
22.4759  349.562
22.5054  349.788
22.5348  349.213
22.5643  347.743
22.5938  348.923
22.6233  349.678
22.6528  348.315
22.6822  348.801
22.7117  349.714
22.7412  353.11
22.7707  356.74
22.8002  352.211
22.8297  357.075
22.8591  364.361
22.8886  368.01
22.9181  376.729
22.9476  381.887
22.9771  387.145
23.0065  386.672
23.036  379.922
23.0655  372.759
23.095  368.027
23.1245  364.99
23.154  362.101
23.1834  359.817
23.2129  358.72
23.2424  357.47
23.2719  356.609
23.3014  355.088
23.3308  356.664
23.3603  355.605
23.3898  356.22
23.4193  357.676
23.4488  358.117
23.4783  358.982
23.5077  360.252
23.5372  360.099
23.5667  360.197
23.5962  357.066
23.6257  353.93
23.6551  352.372
23.6846  351.833
23.7141  350.315
23.7436  348.205
23.7731  347.808
23.8025  348.071
23.832  348.889
23.8615  351.07
23.891  353.969
23.9205  354.088
23.95  358.321
23.9794  359.953
24.0089  360.569
24.0384  360.469
24.0679  358.077
24.0974  355.583
24.1268  353.779
24.1563  353.585
24.1858  352.872
24.2153  354.744
24.2448  356.322
24.2743  361.273
24.3037  365.576
24.3332  369.636
24.3627  372.565
24.3922  372.143
24.4217  370.171
24.4511  364.006
24.4806  358.804
24.5101  354.573
24.5396  350.114
24.5691  347.228
24.5986  346.925
24.628  345.775
24.6575  345.302
24.687  343.255
24.7165  343.929
24.746  346.425
24.7754  346.954
24.8049  343.685
24.8344  343.992
24.8639  346.969
24.8934  347.754
24.9228  347.32
24.9523  350.954
24.9818  352.807
25.0113  355.207
25.0408  358.531
25.0703  363.114
25.0997  367.99
25.1292  373
25.1587  377.145
25.1882  378.652
25.2177  376.79
25.2471  373.504
25.2766  369.72
25.3061  367.325
25.3356  362.501
25.3651  361.138
25.3946  360.319
25.424  360.825
25.4535  363.668
25.483  362.321
25.5125  360.707
25.542  357.481
25.5714  354.88
25.6009  351.759
25.6304  352.179
25.6599  349.728
25.6894  349.059
25.7189  348.687
25.7483  350.516
25.7778  349.232
25.8073  346.632
25.8368  345.312
25.8663  345.531
25.8957  344.467
25.9252  345.332
25.9547  344.649
25.9842  345.793
26.0137  344.484
26.0431  344.706
26.0726  344.219
26.1021  343.877
26.1316  345.936
26.1611  344.793
26.1906  343.936
26.22  343.961
26.2495  343.855
26.279  342.747
26.3085  344.554
26.338  345.052
26.3674  343.239
26.3969  344.947
26.4264  344.079
26.4559  346.414
26.4854  345.76
26.5149  347.129
26.5443  347.781
26.5738  350.122
26.6033  349.549
26.6328  345.611
26.6623  341.846
26.6917  344.196
26.7212  342.089
26.7507  341.695
26.7802  342.287
26.8097  341.675
26.8392  342.916
26.8686  340.917
26.8981  339.231
26.9276  340.888
26.9571  340.61
26.9866  339.998
27.016  345.598
27.0455  349.46
27.075  346.816
27.1045  346.512
27.134  344.691
27.1634  345.249
27.1929  343.763
27.2224  342.732
27.2519  342.829
27.2814  341.686
27.3109  340.261
27.3403  339.741
27.3698  339.907
27.3993  339.6
27.4288  339.546
27.4583  339.226
27.4877  337.418
27.5172  336.743
27.5467  335.578
27.5762  336.754
27.6057  335.838
27.6352  336.116
27.6646  337.778
27.6941  337.18
27.7236  335.194
27.7531  336.154
27.7826  338.969
27.812  338.662
27.8415  338.452
27.871  338.594
27.9005  338.086
27.93  337.226
27.9595  338.512
27.9889  336.847
28.0184  336.166
28.0479  336.778
28.0774  335.268
28.1069  334.146
28.1363  333.833
28.1658  332.146
28.1953  330.18
28.2248  330.548
28.2543  331.401
28.2837  329.945
28.3132  330.29
28.3427  327.708
28.3722  329.495
28.4017  329.111
28.4312  328.305
28.4606  328.857
28.4901  329.223
28.5196  329.692
28.5491  328.853
28.5786  327.825
28.608  327.578
28.6375  330.063
28.667  328.989
28.6965  329.593
28.726  328.581
28.7555  330.134
28.7849  328.12
28.8144  328.95
28.8439  327.862
28.8734  328.481
28.9029  327.95
28.9323  328.541
28.9618  329.676
28.9913  327.419
29.0208  328.021
29.0503  328.589
29.0798  328.715
29.1092  330.132
29.1387  332.223
29.1682  335.184
29.1977  336.373
29.2272  337.131
29.2566  333.242
29.2861  332.828
29.3156  331.457
29.3451  330.951
29.3746  329.955
29.404  328.544
29.4335  328.238
29.463  328.87
29.4925  328.021
29.522  328.302
29.5515  328.959
29.5809  326.849
29.6104  324.582
29.6399  324.955
29.6694  324.323
29.6989  322.188
29.7283  321.795
29.7578  321.132
29.7873  319.208
29.8168  318.329
29.8463  316.646
29.8758  314.849
29.9052  311.619
29.9347  308.803
29.9642  305.306
29.9937  303.018
30.0232  299.601
30.0526  295.518
30.0821  292.437
30.1116  288.98
30.1411  284.039
30.1706  277.315
30.2001  271.497
30.2295  264.881
30.259  259.877
30.2885  252.905
30.318  248.317
30.3475  246.467
30.3769  242.927
30.4064  240.055
30.4359  236.101
30.4654  233.814
30.4949  231.769
30.5243  227.173
30.5538  224.007
30.5833  221.13
30.6128  217.934
30.6423  213.684
30.6718  210.028
30.7012  207.369
30.7307  203.726
30.7602  199.165
30.7897  196.19
30.8192  191.753
30.8486  188.131
30.8781  184.567
30.9076  179.962
30.9371  176.417
30.9666  173.656
30.9961  170.319
31.0255  166.658
31.055  163.123
31.0845  159.245
31.114  155.827
31.1435  152.396
31.1729  148.372
31.2024  144.958
31.2319  141.965
31.2614  137.573
31.2909  134.543
31.3204  131.162
31.3498  127.69
31.3793  124.065
31.4088  121.035
31.4383  117.984
31.4678  114.824
31.4972  112.09
31.5267  108.335
31.5562  105.692
31.5857  102.734
31.6152  99.9035
31.6446  96.3633
31.6741  92.2834
31.7036  89.1064
31.7331  86.6049
31.7626  84.0797
31.7921  80.5178
31.8215  78.2044
31.851  73.5012
31.8805  71.7888
31.91  64.4161
31.9395  62.0891
31.9689  60.0368
31.9984  64.4884
32.0279  47.7308
32.0574  56.4685
32.0869  50.8665