File: Figure1_XRD/073.xy
# == pyFAI calibration ==
# Distance Sample to Detector: 0.115075 m
# PONI: 5.477e-03, 4.716e-03 m
# Rotations: 0.004686 0.005536 0.000000 rad
#
# == Fit2d calibration ==
# Distance Sample-beamCenter: 115.078 mm
# Center: x=55.690, y=81.516 pix
# Tilt: 0.416 deg  TiltPlanRot: 130.247 deg
#
# Detector Detector	 Spline= None	 PixelSize= 7.500e-05, 7.500e-05 m
#    Detector has a mask: False
#    Detector has a dark current: False
#    detector has a flat field: False
#
# Wavelength: 4.833e-11 m
# Mask applied: None
# Dark current applied: None
# Flat field applied: None
# Polarization factor: None
# Normalization factor: None
#
# 2th_deg	 I
1.13121  54.5264
1.16069  92.1159
1.19017  115.226
1.21965  136.497
1.24914  150.03
1.27862  165.58
1.3081  171.439
1.33758  182.849
1.36706  189.261
1.39654  196.029
1.42603  202.054
1.45551  207.455
1.48499  213.808
1.51447  218.079
1.54395  222.068
1.57343  224.745
1.60291  225.23
1.6324  230.307
1.66188  237.385
1.69136  236.52
1.72084  239.774
1.75032  242.434
1.7798  242.447
1.80929  244.429
1.83877  247.387
1.86825  246.77
1.89773  248.685
1.92721  253.759
1.95669  256.42
1.98618  259.921
2.01566  262.156
2.04514  267.015
2.07462  269.328
2.1041  272.203
2.13358  276.014
2.16307  278.252
2.19255  278.684
2.22203  281.775
2.25151  282.913
2.28099  283.115
2.31047  283.702
2.33995  284.942
2.36944  286.199
2.39892  287.501
2.4284  287.668
2.45788  287.992
2.48736  287.145
2.51684  288.543
2.54633  290.249
2.57581  286.319
2.60529  286.5
2.63477  288.363
2.66425  287.427
2.69373  286.226
2.72322  285.42
2.7527  284.704
2.78218  283.852
2.81166  282.793
2.84114  283.951
2.87062  285.547
2.9001  284.477
2.92959  283.063
2.95907  280.281
2.98855  280.25
3.01803  280.091
3.04751  281.807
3.07699  281.027
3.10648  279.904
3.13596  280.403
3.16544  278.94
3.19492  278.781
3.2244  279.651
3.25388  278.506
3.28337  279.443
3.31285  278.259
3.34233  277.696
3.37181  278.089
3.40129  274.861
3.43077  273.263
3.46025  274.448
3.48974  274.374
3.51922  273.346
3.5487  274.479
3.57818  273.833
3.60766  272.902
3.63714  271.398
3.66663  269.441
3.69611  268.941
3.72559  268.505
3.75507  270.909
3.78455  272.323
3.81403  276.681
3.84352  278.922
3.873  279.913
3.90248  279.437
3.93196  276.842
3.96144  273.653
3.99092  270.592
4.0204  268.112
4.04989  266.445
4.07937  264.522
4.10885  262.305
4.13833  261.986
4.16781  260.855
4.19729  260.456
4.22678  258.03
4.25626  255.567
4.28574  256.556
4.31522  256.263
4.3447  254.397
4.37418  252.618
4.40367  251.711
4.43315  251.148
4.46263  250.286
4.49211  249.764
4.52159  248.941
4.55107  247.922
4.58055  247.17
4.61004  246.094
4.63952  245.186
4.669  245.12
4.69848  245.722
4.72796  245.21
4.75744  245.072
4.78693  244.379
4.81641  243.469
4.84589  242.37
4.87537  241.055
4.90485  242.199
4.93433  241.984
4.96382  240.942
4.9933  240.436
5.02278  239.71
5.05226  239.791
5.08174  240.325
5.11122  238.793
5.14071  237.803
5.17019  237.324
5.19967  237.722
5.22915  238.356
5.25863  237.477
5.28811  236.735
5.31759  235.397
5.34708  234.016
5.37656  233.516
5.40604  234.74
5.43552  233.866
5.465  234.247
5.49448  234.705
5.52397  233.677
5.55345  232.719
5.58293  233.424
5.61241  235.746
5.64189  234.841
5.67137  233.333
5.70086  233.793
5.73034  235.245
5.75982  235.502
5.7893  236.281
5.81878  236.778
5.84826  234.184
5.87774  234.71
5.90723  233.673
5.93671  232.357
5.96619  231.459
5.99567  231.527
6.02515  231.742
6.05463  231.735
6.08412  231.952
6.1136  232.353
6.14308  232.543
6.17256  232.066
6.20204  232.451
6.23152  231.402
6.26101  232.478
6.29049  232.795
6.31997  232.718
6.34945  233.15
6.37893  233.735
6.40841  235.223
6.43789  233.927
6.46738  234.83
6.49686  234.318
6.52634  235.484
6.55582  235.45
6.5853  235.243
6.61478  234.783
6.64427  234.732
6.67375  233.952
6.70323  236.187
6.73271  235.902
6.76219  235.634
6.79167  235.626
6.82116  235.701
6.85064  235.69
6.88012  237.159
6.9096  236.509
6.93908  236.986
6.96856  236.752
6.99804  237.821
7.02753  237.527
7.05701  238.6
7.08649  238.788
7.11597  238.73
7.14545  239.85
7.17493  239.593
7.20442  239.197
7.2339  238.763
7.26338  239.717
7.29286  239.735
7.32234  239.827
7.35182  239.502
7.38131  240.311
7.41079  241.063
7.44027  240.904
7.46975  241.03
7.49923  241.155
7.52871  241.712
7.55819  242.527
7.58768  242.982
7.61716  243.757
7.64664  244.476
7.67612  245.897
7.7056  245.144
7.73508  244.326
7.76457  245.025
7.79405  246.026
7.82353  246.875
7.85301  246.785
7.88249  247.335
7.91197  247.715
7.94146  248.2
7.97094  249.125
8.00042  249.258
8.0299  250.475
8.05938  251.456
8.08886  253.775
8.11835  254.759
8.14783  254.279
8.17731  255.602
8.20679  258.57
8.23627  260.31
8.26575  262.288
8.29523  267.737
8.32472  275.518
8.3542  276.136
8.38368  284.785
8.41316  297.253
8.44264  310.045
8.47212  323.198
8.50161  341.779
8.53109  365.667
8.56057  373.952
8.59005  358.647
8.61953  334.768
8.64901  314.247
8.6785  299.436
8.70798  286.489
8.73746  280.633
8.76694  281.308
8.79642  284.103
8.8259  282.199
8.85538  280.145
8.88487  280.741
8.91435  281.945
8.94383  284.504
8.97331  286.708
9.00279  289.307
9.03227  288.835
9.06176  289.078
9.09124  290.344
9.12072  291.346
9.1502  291.822
9.17968  293.047
9.20916  295.24
9.23865  297.813
9.26813  298.912
9.29761  300.068
9.32709  300.607
9.35657  301.804
9.38605  302.633
9.41553  305.407
9.44502  307.072
9.4745  307.452
9.50398  308.796
9.53346  310.838
9.56294  312.493
9.59242  311.352
9.62191  312.196
9.65139  312.413
9.68087  311.112
9.71035  310.601
9.73983  309.56
9.76931  309.809
9.7988  310.133
9.82828  310.086
9.85776  311.874
9.88724  312.881
9.91672  312.444
9.9462  315.237
9.97568  325.841
10.0052  345.971
10.0346  377.249
10.0641  415.974
10.0936  442.334
10.1231  437.253
10.1526  405.062
10.1821  382.557
10.2115  379.285
10.241  379.741
10.2705  376.06
10.3  366.382
10.3295  351.063
10.3589  336.371
10.3884  323.455
10.4179  326.708
10.4474  327.186
10.4769  317.899
10.5064  310.252
10.5358  305.035
10.5653  301.305
10.5948  297.673
10.6243  295.814
10.6538  294.006
10.6832  292.144
10.7127  290.605
10.7422  289.658
10.7717  288.59
10.8012  287.775
10.8307  286.592
10.8601  287.04
10.8896  286.204
10.9191  286.042
10.9486  285.662
10.9781  285.216
11.0075  286.815
11.037  286.532
11.0665  285.12
11.096  285.365
11.1255  285.453
11.1549  286.305
11.1844  288.394
11.2139  288.881
11.2434  290.559
11.2729  290.756
11.3024  292.263
11.3318  293.446
11.3613  295.332
11.3908  296.724
11.4203  296.078
11.4498  296.168
11.4792  295.99
11.5087  296.729
11.5382  298.326
11.5677  303.844
11.5972  310.939
11.6267  323.217
11.6561  340.545
11.6856  359.746
11.7151  376.016
11.7446  382.855
11.7741  369.081
11.8035  339.781
11.833  314.908
11.8625  300.244
11.892  294.578
11.9215  292.763
11.951  291.167
11.9804  290.553
12.0099  290.215
12.0394  289.26
12.0689  288.583
12.0984  290.17
12.1278  289.953
12.1573  290.818
12.1868  290.557
12.2163  290.242
12.2458  291.858
12.2752  291.711
12.3047  292.929
12.3342  292.481
12.3637  292.5
12.3932  293.426
12.4227  295.292
12.4521  296.358
12.4816  296.794
12.5111  298.385
12.5406  298.971
12.5701  300.03
12.5995  301.6
12.629  302.674
12.6585  303.044
12.688  303.415
12.7175  305.518
12.747  306.942
12.7764  307.183
12.8059  308.391
12.8354  310.519
12.8649  313.579
12.8944  308.53
12.9238  307.069
12.9533  307.286
12.9828  306.306
13.0123  307.789
13.0418  309.68
13.0713  312.276
13.1007  315.198
13.1302  319.045
13.1597  326.755
13.1892  338.923
13.2187  355.205
13.2481  379.972
13.2776  412.493
13.3071  443.673
13.3366  460.455
13.3661  439.527
13.3955  390.691
13.425  351.536
13.4545  332.659
13.484  324.636
13.5135  320.805
13.543  320.212
13.5724  319.927
13.6019  321.576
13.6314  322.875
13.6609  324.749
13.6904  326.444
13.7198  330.501
13.7493  336.115
13.7788  350.793
13.8083  355.54
13.8378  354.775
13.8673  352.033
13.8967  347.368
13.9262  342.791
13.9557  337.204
13.9852  333.47
14.0147  330.849
14.0441  329.383
14.0736  327.24
14.1031  327.181
14.1326  326.871
14.1621  326.062
14.1916  327.228
14.221  329.401
14.2505  332.272
14.28  332.964
14.3095  333.304
14.339  337.07
14.3684  343.403
14.3979  356.952
14.4274  379.201
14.4569  402.106
14.4864  419.85
14.5158  422.865
14.5453  409.62
14.5748  392.638
14.6043  377.12
14.6338  370.496
14.6633  365.728
14.6927  362.413
14.7222  360.559
14.7517  357.846
14.7812  353.509
14.8107  348.035
14.8401  343.209
14.8696  340.537
14.8991  337.306
14.9286  338.604
14.9581  341.284
14.9876  345.857
15.017  350.866
15.0465  354.254
15.076  353.521
15.1055  348.563
15.135  342.621
15.1644  337.19
15.1939  331.739
15.2234  330.249
15.2529  330.039
15.2824  328.744
15.3119  327.805
15.3413  327.545
15.3708  328.376
15.4003  328.268
15.4298  328.005
15.4593  328.835
15.4887  327.903
15.5182  328.954
15.5477  329.273
15.5772  328.932
15.6067  330.355
15.6361  331.932
15.6656  330.751
15.6951  331.095
15.7246  330.856
15.7541  330.003
15.7836  329.32
15.813  327.752
15.8425  326.735
15.872  325.967
15.9015  325.481
15.931  325.264
15.9604  325.281
15.9899  325.238
16.0194  325.916
16.0489  326.226
16.0784  326.634
16.1079  326.297
16.1373  326.369
16.1668  326.783
16.1963  326.76
16.2258  328.49
16.2553  330.578
16.2847  330.894
16.3142  332.227
16.3437  333.984
16.3732  333.715
16.4027  334.428
16.4322  335.823
16.4616  333.405
16.4911  333.444
16.5206  332.907
16.5501  332.961
16.5796  332.713
16.609  332.623
16.6385  333.139
16.668  335.044
16.6975  335.925
16.727  338.588
16.7564  340.994
16.7859  345.679
16.8154  351.897
16.8449  355.322
16.8744  353.677
16.9039  349.248
16.9333  343.321
16.9628  338.007
16.9923  334.064
17.0218  333.183
17.0513  333.466
17.0807  332.672
17.1102  334.182
17.1397  333.416
17.1692  333.78
17.1987  334.212
17.2282  333.648
17.2576  333.945
17.2871  336.497
17.3166  334.518
17.3461  333.823
17.3756  333.384
17.405  332.818
17.4345  332.831
17.464  333.028
17.4935  334.264
17.523  334.814
17.5525  335.547
17.5819  338.041
17.6114  340.109
17.6409  341.791
17.6704  344.655
17.6999  348.649
17.7293  352.045
17.7588  355.253
17.7883  357.276
17.8178  357.547
17.8473  356.146
17.8767  353.523
17.9062  351.542
17.9357  348.277
17.9652  344.982
17.9947  342.564
18.0242  340.589
18.0536  339.405
18.0831  337.661
18.1126  335.875
18.1421  336.215
18.1716  335.713
18.201  340.657
18.2305  337.915
18.26  337.382
18.2895  336.664
18.319  336.742
18.3485  338.056
18.3779  339.794
18.4074  341.154
18.4369  341.901
18.4664  342.574
18.4959  341.737
18.5253  339.28
18.5548  337.963
18.5843  336.607
18.6138  335.294
18.6433  334.249
18.6728  333.886
18.7022  332.352
18.7317  331.373
18.7612  330.569
18.7907  329.896
18.8202  329.689
18.8496  329.848
18.8791  328.267
18.9086  330.32
18.9381  331.076
18.9676  331.08
18.997  330.074
19.0265  329.166
19.056  328.623
19.0855  328.071
19.115  330.257
19.1445  329.548
19.1739  329.218
19.2034  329.826
19.2329  328.709
19.2624  329.015
19.2919  329.531
19.3213  328.3
19.3508  328.489
19.3803  328.645
19.4098  330.692
19.4393  332.215
19.4688  330.327
19.4982  330.233
19.5277  329.838
19.5572  329.489
19.5867  329.001
19.6162  329.175
19.6456  328.997
19.6751  329.864
19.7046  328.883
19.7341  329.937
19.7636  330.603
19.7931  329.761
19.8225  331.579
19.852  331.555
19.8815  332.88
19.911  334.778
19.9405  335.228
19.9699  335.806
19.9994  337.179
20.0289  336.881
20.0584  336.966
20.0879  338.989
20.1173  340.679
20.1468  341.252
20.1763  344.736
20.2058  351.038
20.2353  360.169
20.2648  370.768
20.2942  380.758
20.3237  388.308
20.3532  390.778
20.3827  383.548
20.4122  373.124
20.4416  360.832
20.4711  351.411
20.5006  345.798
20.5301  341.377
20.5596  339.166
20.5891  336.82
20.6185  336.079
20.648  333.742
20.6775  333.811
20.707  332.776
20.7365  331.812
20.7659  330.827
20.7954  330.545
20.8249  330.217
20.8544  329.389
20.8839  329.703
20.9134  329.077
20.9428  329.637
20.9723  327.817
21.0018  328.218
21.0313  329.798
21.0608  329.117
21.0902  328.863
21.1197  330.293
21.1492  329.789
21.1787  330.361
21.2082  329.294
21.2377  329.671
21.2671  331.6
21.2966  331.873
21.3261  332.669
21.3556  333.175
21.3851  333.658
21.4145  333.138
21.444  335.022
21.4735  334.629
21.503  333.896
21.5325  333.305
21.5619  332.361
21.5914  332.084
21.6209  331.52
21.6504  330.255
21.6799  330.111
21.7094  330.876
21.7388  331.776
21.7683  329.495
21.7978  331.177
21.8273  331.851
21.8568  333.148
21.8862  332.383
21.9157  332.333
21.9452  335.984
21.9747  337.719
22.0042  338.34
22.0337  339.157
22.0631  339.492
22.0926  342.418
22.1221  344.782
22.1516  345.09
22.1811  349.951
22.2105  355.711
22.24  360.82
22.2695  362.788
22.299  361.989
22.3285  360.303
22.358  356.356
22.3874  352.856
22.4169  349.218
22.4464  347.209
22.4759  345.537
22.5054  344.505
22.5348  344.731
22.5643  345.512
22.5938  345.792
22.6233  345.123
22.6528  345.818
22.6822  346.989
22.7117  346.855
22.7412  348.983
22.7707  349.495
22.8002  348.203
22.8297  350.969
22.8591  356.722
22.8886  360.951
22.9181  367.374
22.9476  374.072
22.9771  379.999
23.0065  384.084
23.036  379.372
23.0655  372.777
23.095  368.567
23.1245  365.49
23.154  363.363
23.1834  360.966
23.2129  357.574
23.2424  355.152
23.2719  354.04
23.3014  352.603
23.3308  353.252
23.3603  353.83
23.3898  353.902
23.4193  354.434
23.4488  357.149
23.4783  357.618
23.5077  357.003
23.5372  356.484
23.5667  356.547
23.5962  354.05
23.6257  349.605
23.6551  350.196
23.6846  349.281
23.7141  347.124
23.7436  346.392
23.7731  347.153
23.8025  346.476
23.832  346.134
23.8615  347.39
23.891  350.676
23.9205  351.115
23.95  353.639
23.9794  357.553
24.0089  356.291
24.0384  356.595
24.0679  354.077
24.0974  352.017
24.1268  352.205
24.1563  350.795
24.1858  349.153
24.2153  351.283
24.2448  354.918
24.2743  358.38
24.3037  360.848
24.3332  365.812
24.3627  369.225
24.3922  369.981
24.4217  366.476
24.4511  360.565
24.4806  356.205
24.5101  352.568
24.5396  346.9
24.5691  346.219
24.5986  344.027
24.628  343.157
24.6575  341.709
24.687  341.361
24.7165  340.796
24.746  340.773
24.7754  340.438
24.8049  342.164
24.8344  343.159
24.8639  344.442
24.8934  343.636
24.9228  344.206
24.9523  345.967
24.9818  348.544
25.0113  348.985
25.0408  351.819
25.0703  356.56
25.0997  360.131
25.1292  365.03
25.1587  369.271
25.1882  372.58
25.2177  373.444
25.2471  373.86
25.2766  370.608
25.3061  366.347
25.3356  362.836
25.3651  360.467
25.3946  357.95
25.424  358.387
25.4535  359.161
25.483  361.126
25.5125  357.428
25.542  356.557
25.5714  354.162
25.6009  351.85
25.6304  351.861
25.6599  349.09
25.6894  347.308
25.7189  345.348
25.7483  344.795
25.7778  344.519
25.8073  342.249
25.8368  341.11
25.8663  340.372
25.8957  342.318
25.9252  341.63
25.9547  342.603
25.9842  340.646
26.0137  340.396
26.0431  340.32
26.0726  339.807
26.1021  338.71
26.1316  340.421
26.1611  341.512
26.1906  341.648
26.22  339.967
26.2495  340.226
26.279  341.824
26.3085  341.216
26.338  342.433
26.3674  340.138
26.3969  341.048
26.4264  340.713
26.4559  343.049
26.4854  343.976
26.5149  342.975
26.5443  343.472
26.5738  344.92
26.6033  343.957
26.6328  342.91
26.6623  338.453
26.6917  339.741
26.7212  338.334
26.7507  340.154
26.7802  339.568
26.8097  339.236
26.8392  336.693
26.8686  338.794
26.8981  340.759
26.9276  339.662
26.9571  338.028
26.9866  335.659
27.016  337.817
27.0455  337.347
27.075  338.249
27.1045  343.889
27.134  344.588
27.1634  344.192
27.1929  343.803
27.2224  340.114
27.2519  339.558
27.2814  339.698
27.3109  338.869
27.3403  338.441
27.3698  337.35
27.3993  336.324
27.4288  336.324
27.4583  335.872
27.4877  333.583
27.5172  334.955
27.5467  333.142
27.5762  334.281
27.6057  334.919
27.6352  334.91
27.6646  334.863
27.6941  334.143
27.7236  333.753
27.7531  334.284
27.7826  332.441
27.812  334.268
27.8415  333.217
27.871  334.769
27.9005  336.586
27.93  336.071
27.9595  335.422
27.9889  335.747
28.0184  334.719
28.0479  333.399
28.0774  332.818
28.1069  333.453
28.1363  333.128
28.1658  328.661
28.1953  328.731
28.2248  327.748
28.2543  327.235
28.2837  326.993
28.3132  328.848
28.3427  325.684
28.3722  326.854
28.4017  325.735
28.4312  326.335
28.4606  325.381
28.4901  325.251
28.5196  326.17
28.5491  324.465
28.5786  323.891
28.608  324.73
28.6375  325.996
28.667  325.99
28.6965  325.249
28.726  325.937
28.7555  326.631
28.7849  325.957
28.8144  326.786
28.8439  325.979
28.8734  325.531
28.9029  324.255
28.9323  325.78
28.9618  325.557
28.9913  324.758
29.0208  324.345
29.0503  325.257
29.0798  324.459
29.1092  327.109
29.1387  328.125
29.1682  331.588
29.1977  330.945
29.2272  331.412
29.2566  332.295
29.2861  331.08
29.3156  330.08
29.3451  328.209
29.3746  326.683
29.404  325.64
29.4335  326.214
29.463  326.295
29.4925  324.429
29.522  325.446
29.5515  324.015
29.5809  322.784
29.6104  321.817
29.6399  321.284
29.6694  322.166
29.6989  321.212
29.7283  319.686
29.7578  317.04
29.7873  315.694
29.8168  315.282
29.8463  313.575
29.8758  311.743
29.9052  308.745
29.9347  305.885
29.9642  304.409
29.9937  301.448
30.0232  296.177
30.0526  292.762
30.0821  287.791
30.1116  286.196
30.1411  282.744
30.1706  277.626
30.2001  270.952
30.2295  263.94
30.259  255.642
30.2885  250.845
30.318  246.693
30.3475  245.397
30.3769  240.269
30.4064  238.405
30.4359  236.945
30.4654  233.538
30.4949  229.473
30.5243  225.616
30.5538  222.574
30.5833  219.57
30.6128  216.864
30.6423  212.195
30.6718  209.873
30.7012  204.996
30.7307  200.673
30.7602  197.642
30.7897  194.376
30.8192  191.681
30.8486  187.347
30.8781  183.433
30.9076  178.837
30.9371  176.014
30.9666  171.926
30.9961  168.151
31.0255  165.696
31.055  161.66
31.0845  158.324
31.114  154.646
31.1435  150.374
31.1729  147.385
31.2024  144.812
31.2319  140.986
31.2614  137.674
31.2909  133.501
31.3204  130.447
31.3498  127.826
31.3793  124.415
31.4088  120.744
31.4383  116.877
31.4678  113.403
31.4972  110.993
31.5267  107.239
31.5562  103.275
31.5857  101.379
31.6152  98.0946
31.6446  95.3323
31.6741  91.7201
31.7036  88.18
31.7331  87.145
31.7626  84.2754
31.7921  79.8685
31.8215  74.532
31.851  73.449
31.8805  71.655
31.91  69.7842
31.9395  64.654
31.9689  66.3441
31.9984  64.9675
32.0279  55.4294
32.0574  50.1942
32.0869  40.7524