File: Figure1_XRD/085.xy
# == pyFAI calibration ==
# Distance Sample to Detector: 0.115075 m
# PONI: 5.477e-03, 4.716e-03 m
# Rotations: 0.004686 0.005536 0.000000 rad
#
# == Fit2d calibration ==
# Distance Sample-beamCenter: 115.078 mm
# Center: x=55.690, y=81.516 pix
# Tilt: 0.416 deg  TiltPlanRot: 130.247 deg
#
# Detector Detector	 Spline= None	 PixelSize= 7.500e-05, 7.500e-05 m
#    Detector has a mask: False
#    Detector has a dark current: False
#    detector has a flat field: False
#
# Wavelength: 4.833e-11 m
# Mask applied: None
# Dark current applied: None
# Flat field applied: None
# Polarization factor: None
# Normalization factor: None
#
# 2th_deg	 I
1.13121  73.2381
1.16069  89.7336
1.19017  111.005
1.21965  132.241
1.24914  143.579
1.27862  157.683
1.3081  162.669
1.33758  172.183
1.36706  179.913
1.39654  185.356
1.42603  190.363
1.45551  196.026
1.48499  200.376
1.51447  205.623
1.54395  209.031
1.57343  212.111
1.60291  214.697
1.6324  219.421
1.66188  224.463
1.69136  222.935
1.72084  224.671
1.75032  227.114
1.7798  228.274
1.80929  231.185
1.83877  234.018
1.86825  234.55
1.89773  235.735
1.92721  239.3
1.95669  241.018
1.98618  243.65
2.01566  247.583
2.04514  251.149
2.07462  254.131
2.1041  256.66
2.13358  259.438
2.16307  262.081
2.19255  264.379
2.22203  268.103
2.25151  267.58
2.28099  267.129
2.31047  267.337
2.33995  268.318
2.36944  270.057
2.39892  271.485
2.4284  272.801
2.45788  272.302
2.48736  272.03
2.51684  272.606
2.54633  273.266
2.57581  271.068
2.60529  270.136
2.63477  272.001
2.66425  272.762
2.69373  270.82
2.72322  268.912
2.7527  269.587
2.78218  269.011
2.81166  268.176
2.84114  269.642
2.87062  267.815
2.9001  268.305
2.92959  266.685
2.95907  264.651
2.98855  266.249
3.01803  264.66
3.04751  264.341
3.07699  265.727
3.10648  264.76
3.13596  262.986
3.16544  262.852
3.19492  264.226
3.2244  264.73
3.25388  262.566
3.28337  262.416
3.31285  262.46
3.34233  262.319
3.37181  263.442
3.40129  261.833
3.43077  260.587
3.46025  259.668
3.48974  259.207
3.51922  259.923
3.5487  257.964
3.57818  256.414
3.60766  256.622
3.63714  255.39
3.66663  254.458
3.69611  253.504
3.72559  254.223
3.75507  253.164
3.78455  253.916
3.81403  259.011
3.84352  262.238
3.873  264.563
3.90248  264.941
3.93196  262.168
3.96144  258.482
3.99092  256.634
4.0204  254.591
4.04989  252.656
4.07937  252.637
4.10885  249.989
4.13833  247.408
4.16781  245.169
4.19729  244.171
4.22678  244.409
4.25626  241.647
4.28574  241.038
4.31522  242.035
4.3447  240.906
4.37418  239.26
4.40367  238.525
4.43315  238.244
4.46263  236.726
4.49211  235.981
4.52159  235.374
4.55107  234.643
4.58055  234.288
4.61004  232.327
4.63952  232.31
4.669  231.77
4.69848  232.278
4.72796  231.172
4.75744  231.996
4.78693  231.011
4.81641  230.157
4.84589  229.268
4.87537  227.61
4.90485  228.54
4.93433  228.077
4.96382  227.486
4.9933  227.916
5.02278  227.103
5.05226  227.52
5.08174  226.052
5.11122  226.377
5.14071  227.4
5.17019  226.602
5.19967  225.403
5.22915  223.79
5.25863  223.886
5.28811  223.804
5.31759  223.339
5.34708  222.259
5.37656  222.137
5.40604  221.785
5.43552  221.09
5.465  220.559
5.49448  220.725
5.52397  221.717
5.55345  221.166
5.58293  220.157
5.61241  220.065
5.64189  220.32
5.67137  220.536
5.70086  220.141
5.73034  220.88
5.75982  222.121
5.7893  223.473
5.81878  224.458
5.84826  223.119
5.87774  221.956
5.90723  221.223
5.93671  220.865
5.96619  220.413
5.99567  220.618
6.02515  219.406
6.05463  219.137
6.08412  219.475
6.1136  219.704
6.14308  219.083
6.17256  218.983
6.20204  220.196
6.23152  218.955
6.26101  219.931
6.29049  219.402
6.31997  220.586
6.34945  219.491
6.37893  219.995
6.40841  221.594
6.43789  221.773
6.46738  222.146
6.49686  221.894
6.52634  222.131
6.55582  222.61
6.5853  221.798
6.61478  221.759
6.64427  221.365
6.67375  222.961
6.70323  223.523
6.73271  221.401
6.76219  220.675
6.79167  222.528
6.82116  222.852
6.85064  224.097
6.88012  223.653
6.9096  224.073
6.93908  225.018
6.96856  223.942
6.99804  223.519
7.02753  224.216
7.05701  225.796
7.08649  225.261
7.11597  225.78
7.14545  227.041
7.17493  227.298
7.20442  226.548
7.2339  225.688
7.26338  227.227
7.29286  227.667
7.32234  227.94
7.35182  228.933
7.38131  227.406
7.41079  227.642
7.44027  228.257
7.46975  228.92
7.49923  229.867
7.52871  229.709
7.55819  230.206
7.58768  230.185
7.61716  230.692
7.64664  231.448
7.67612  231.164
7.7056  230.666
7.73508  230.585
7.76457  232.315
7.79405  232.209
7.82353  233.435
7.85301  233.392
7.88249  233.307
7.91197  233.865
7.94146  235.79
7.97094  236.366
8.00042  235.623
8.0299  236.329
8.05938  236.541
8.08886  238.874
8.11835  239.842
8.14783  239.837
8.17731  242.037
8.20679  242.744
8.23627  244.229
8.26575  246.897
8.29523  247.468
8.32472  250.838
8.3542  249.351
8.38368  254.101
8.41316  261.828
8.44264  272.515
8.47212  279.227
8.50161  291.1
8.53109  310.3
8.56057  335.965
8.59005  356.689
8.61953  359.875
8.64901  344.279
8.6785  318.638
8.70798  296.711
8.73746  281.133
8.76694  278.363
8.79642  281.389
8.8259  274.368
8.85538  270.306
8.88487  268.612
8.91435  268.314
8.94383  270.338
8.97331  271.188
9.00279  271.839
9.03227  272.445
9.06176  273.448
9.09124  274.092
9.12072  274.437
9.1502  274.23
9.17968  276.44
9.20916  277.978
9.23865  279.898
9.26813  283.233
9.29761  284.145
9.32709  284.875
9.35657  285.839
9.38605  286.902
9.41553  287.793
9.44502  288.023
9.4745  289.672
9.50398  292.077
9.53346  292.804
9.56294  292.983
9.59242  292.547
9.62191  292.076
9.65139  293.564
9.68087  292.724
9.71035  292.869
9.73983  292.46
9.76931  292.085
9.7988  292.252
9.82828  291.515
9.85776  291.917
9.88724  291.531
9.91672  287.507
9.9462  286.519
9.97568  288.691
10.0052  293.786
10.0346  299.611
10.0641  308.636
10.0936  326.402
10.1231  356.561
10.1526  394.295
10.1821  424.032
10.2115  417.77
10.241  388.638
10.2705  369.31
10.3  365.757
10.3295  360.365
10.3589  350.592
10.3884  336.723
10.4179  346.79
10.4474  347.813
10.4769  329.2
10.5064  314.973
10.5358  306.094
10.5653  298.752
10.5948  291.829
10.6243  287.59
10.6538  284.122
10.6832  281.439
10.7127  280.179
10.7422  278.209
10.7717  276.816
10.8012  276.506
10.8307  274.464
10.8601  273.461
10.8896  272.169
10.9191  272.906
10.9486  272.466
10.9781  271.336
11.0075  272.385
11.037  272.482
11.0665  272.502
11.096  271.808
11.1255  272.599
11.1549  272.476
11.1844  272.544
11.2139  273.282
11.2434  274.923
11.2729  274.623
11.3024  275.143
11.3318  275.495
11.3613  278.854
11.3908  280.049
11.4203  280.19
11.4498  282.712
11.4792  283.373
11.5087  285.063
11.5382  285.389
11.5677  290.431
11.5972  297.438
11.6267  308.72
11.6561  326.696
11.6856  345.033
11.7151  361.038
11.7446  370.358
11.7741  360.077
11.8035  333.645
11.833  306.645
11.8625  290.956
11.892  281.832
11.9215  278.088
11.951  277.314
11.9804  276.048
12.0099  276.125
12.0394  275.06
12.0689  274.177
12.0984  274.696
12.1278  274.567
12.1573  275.083
12.1868  275.331
12.2163  275.336
12.2458  275.406
12.2752  275.189
12.3047  276.204
12.3342  276.564
12.3637  277.194
12.3932  278.572
12.4227  279.115
12.4521  278.938
12.4816  279.468
12.5111  281.348
12.5406  281.869
12.5701  282.116
12.5995  283.382
12.629  283.835
12.6585  283.764
12.688  283.706
12.7175  284.419
12.747  286.216
12.7764  287.397
12.8059  288.44
12.8354  289.807
12.8649  291.93
12.8944  294.42
12.9238  295.903
12.9533  296.128
12.9828  298.405
13.0123  300.943
13.0418  301.945
13.0713  304.817
13.1007  307.029
13.1302  307.075
13.1597  310.529
13.1892  318.24
13.2187  332.084
13.2481  352.282
13.2776  375.894
13.3071  397.22
13.3366  406.267
13.3661  396.365
13.3955  368.405
13.425  333.95
13.4545  312.839
13.484  306.149
13.5135  302.53
13.543  302.377
13.5724  301.621
13.6019  299.766
13.6314  299.81
13.6609  300.757
13.6904  303.346
13.7198  306.207
13.7493  311.088
13.7788  317.735
13.8083  323.958
13.8378  327.821
13.8673  328.484
13.8967  328.946
13.9262  330.064
13.9557  334.32
13.9852  329.453
14.0147  325.305
14.0441  321.033
14.0736  319.156
14.1031  317.094
14.1326  315.293
14.1621  312.002
14.1916  311.104
14.221  312.278
14.2505  312.553
14.28  313.282
14.3095  315.509
14.339  318.782
14.3684  320.527
14.3979  321.603
14.4274  324.964
14.4569  332.572
14.4864  342.525
14.5158  358.16
14.5453  376.192
14.5748  390.677
14.6043  396.369
14.6338  392.619
14.6633  376.866
14.6927  358.939
14.7222  347.058
14.7517  340.532
14.7812  339.139
14.8107  337.684
14.8401  336.498
14.8696  335.191
14.8991  333.12
14.9286  333.722
14.9581  331.879
14.9876  330.291
15.017  329.102
15.0465  328.271
15.076  330.216
15.1055  333.766
15.135  335.032
15.1644  334
15.1939  330.493
15.2234  325.289
15.2529  320.563
15.2824  316.587
15.3119  315.298
15.3413  313.438
15.3708  311.946
15.4003  311.866
15.4298  311.872
15.4593  310.524
15.4887  310.092
15.5182  310.844
15.5477  312.673
15.5772  311.932
15.6067  312.025
15.6361  313.151
15.6656  312.302
15.6951  311.925
15.7246  311.639
15.7541  310.855
15.7836  311.918
15.813  312.435
15.8425  312.134
15.872  312.844
15.9015  313.519
15.931  313.011
15.9604  311.757
15.9899  311.176
16.0194  311.579
16.0489  311.767
16.0784  311.862
16.1079  310.826
16.1373  310.51
16.1668  311.212
16.1963  310.666
16.2258  311.752
16.2553  312.801
16.2847  314.178
16.3142  315.4
16.3437  316.063
16.3732  316.4
16.4027  316.906
16.4322  316.869
16.4616  315.742
16.4911  315.718
16.5206  315.072
16.5501  315.001
16.5796  315.362
16.609  314.669
16.6385  315.017
16.668  314.853
16.6975  314.922
16.727  314.876
16.7564  315.734
16.7859  317.65
16.8154  319.453
16.8449  321.909
16.8744  324.965
16.9039  328.655
16.9333  331.268
16.9628  332.629
16.9923  329.322
17.0218  325.697
17.0513  321.561
17.0807  317.794
17.1102  317.49
17.1397  316.053
17.1692  316.696
17.1987  317.058
17.2282  317.633
17.2576  317.693
17.2871  318.576
17.3166  318.895
17.3461  317.593
17.3756  316.742
17.405  316.27
17.4345  315.601
17.464  314.459
17.4935  314.857
17.523  315.184
17.5525  316.511
17.5819  317.438
17.6114  316.99
17.6409  317.535
17.6704  318.885
17.6999  319.441
17.7293  321.339
17.7588  323.036
17.7883  324.835
17.8178  328.227
17.8473  332.101
17.8767  334.559
17.9062  334.653
17.9357  335.63
17.9652  335.089
17.9947  333.385
18.0242  330.591
18.0536  330.069
18.0831  329.789
18.1126  328.906
18.1421  326.96
18.1716  324.499
18.201  323.137
18.2305  321.264
18.26  320.515
18.2895  319.022
18.319  319.085
18.3485  319.242
18.3779  319.34
18.4074  319.476
18.4369  319.857
18.4664  320.682
18.4959  323.339
18.5253  322.853
18.5548  323.123
18.5843  324.061
18.6138  322.578
18.6433  322.214
18.6728  320.153
18.7022  318.111
18.7317  316.217
18.7612  315.819
18.7907  315.581
18.8202  315.599
18.8496  315.475
18.8791  313.966
18.9086  312.562
18.9381  312.614
18.9676  313.788
18.997  312.502
19.0265  313.218
19.056  311.296
19.0855  311.566
19.115  313.808
19.1445  313.137
19.1739  313.162
19.2034  312.637
19.2329  312.3
19.2624  312.166
19.2919  311.143
19.3213  312.041
19.3508  312.106
19.3803  310.945
19.4098  310.796
19.4393  311.521
19.4688  312.663
19.4982  312.614
19.5277  312.791
19.5572  312.519
19.5867  312.811
19.6162  312.435
19.6456  312.656
19.6751  313.665
19.7046  313.653
19.7341  312.482
19.7636  311.422
19.7931  312.642
19.8225  312.484
19.852  312.965
19.8815  313.656
19.911  314.627
19.9405  315.436
19.9699  315.801
19.9994  315.426
20.0289  317.078
20.0584  319.508
20.0879  320.138
20.1173  322.693
20.1468  324.125
20.1763  326.549
20.2058  331.163
20.2353  337.158
20.2648  346.192
20.2942  358.188
20.3237  367.727
20.3532  374.045
20.3827  371.827
20.4122  363.571
20.4416  353.903
20.4711  344.579
20.5006  334.992
20.5301  327.914
20.5596  324.108
20.5891  320.949
20.6185  319.357
20.648  319.922
20.6775  317.894
20.707  318.826
20.7365  318.311
20.7659  317.024
20.7954  315.315
20.8249  315.104
20.8544  314.148
20.8839  314.883
20.9134  315.48
20.9428  314.408
20.9723  313.947
21.0018  314.349
21.0313  312.246
21.0608  312.325
21.0902  312.104
21.1197  311.751
21.1492  311.914
21.1787  311.36
21.2082  312.285
21.2377  313.815
21.2671  314.67
21.2966  313.719
21.3261  313.368
21.3556  313.505
21.3851  315.451
21.4145  315.618
21.444  315.882
21.4735  317.524
21.503  318.488
21.5325  318.68
21.5619  317.879
21.5914  318.175
21.6209  317.132
21.6504  316.334
21.6799  315.111
21.7094  314.755
21.7388  315.227
21.7683  315.11
21.7978  315.962
21.8273  314.633
21.8568  316.027
21.8862  315.887
21.9157  315.155
21.9452  316.311
21.9747  316.764
22.0042  317.077
22.0337  318.193
22.0631  318.129
22.0926  320.685
22.1221  318.747
22.1516  319.318
22.1811  322.839
22.2105  324.99
22.24  325.656
22.2695  328.095
22.299  330.923
22.3285  333.837
22.358  338.923
22.3874  341.67
22.4169  342.874
22.4464  341.418
22.4759  337.297
22.5054  332.595
22.5348  328.905
22.5643  326.515
22.5938  324.769
22.6233  325.239
22.6528  325.159
22.6822  325.984
22.7117  325.042
22.7412  325.816
22.7707  327.137
22.8002  326.667
22.8297  327.381
22.8591  328.94
22.8886  329.286
22.9181  331.716
22.9476  332.517
22.9771  337.103
23.0065  343.168
23.036  345.573
23.0655  352.353
23.095  359.024
23.1245  367.071
23.154  369.644
23.1834  364.107
23.2129  358.287
23.2424  352.505
23.2719  346.441
23.3014  341.366
23.3308  340.434
23.3603  337.874
23.3898  337.509
23.4193  338.426
23.4488  340.251
23.4783  342.287
23.5077  341.918
23.5372  340.837
23.5667  341.73
23.5962  339.655
23.6257  337.113
23.6551  336.584
23.6846  336.201
23.7141  334.449
23.7436  333.477
23.7731  333.655
23.8025  332.335
23.832  330.547
23.8615  331.482
23.891  331.93
23.9205  334.4
23.95  336.284
23.9794  337.828
24.0089  338.304
24.0384  339.036
24.0679  338.88
24.0974  336.073
24.1268  335.166
24.1563  334.105
24.1858  333.209
24.2153  334.147
24.2448  334.306
24.2743  338.135
24.3037  341.357
24.3332  344.514
24.3627  346.82
24.3922  349.597
24.4217  348.831
24.4511  346.801
24.4806  340.573
24.5101  336.606
24.5396  332.843
24.5691  330.406
24.5986  327.615
24.628  324.432
24.6575  324.561
24.687  325.175
24.7165  322.732
24.746  322.311
24.7754  322.062
24.8049  322.122
24.8344  321.535
24.8639  322.637
24.8934  322.349
24.9228  321.894
24.9523  322.711
24.9818  323.164
25.0113  323.689
25.0408  325.373
25.0703  324.889
25.0997  326.305
25.1292  329.797
25.1587  331.503
25.1882  333.576
25.2177  335.017
25.2471  337.505
25.2766  343.76
25.3061  346.628
25.3356  348.578
25.3651  352.631
25.3946  350.26
25.424  348.193
25.4535  347.432
25.483  346.454
25.5125  344.048
25.542  340.769
25.5714  340.051
25.6009  338.846
25.6304  337.975
25.6599  337.271
25.6894  335.691
25.7189  333.853
25.7483  332.404
25.7778  329.804
25.8073  327.82
25.8368  327.099
25.8663  327.264
25.8957  326.741
25.9252  328.5
25.9547  328.38
25.9842  326.864
26.0137  325.606
26.0431  326.683
26.0726  324.351
26.1021  322.914
26.1316  323.149
26.1611  323.645
26.1906  324.8
26.22  322.581
26.2495  323.558
26.279  322.511
26.3085  322.687
26.338  321.394
26.3674  320.713
26.3969  320.23
26.4264  320.92
26.4559  320.635
26.4854  321.809
26.5149  322.323
26.5443  322.138
26.5738  321.94
26.6033  321.704
26.6328  324.148
26.6623  322.759
26.6917  324.251
26.7212  323.077
26.7507  325.572
26.7802  323.686
26.8097  323.734
26.8392  323.704
26.8686  324.513
26.8981  323.022
26.9276  322.362
26.9571  322.782
26.9866  324.438
27.016  326.377
27.0455  327.769
27.075  329.361
27.1045  326.648
27.134  313.724
27.1634  313.911
27.1929  313.244
27.2224  316.09
27.2519  316.192
27.2814  314.194
27.3109  316.639
27.3403  315.119
27.3698  313.385
27.3993  314.903
27.4288  323.474
27.4583  329.229
27.4877  324.732
27.5172  323.115
27.5467  321.502
27.5762  321.186
27.6057  319.973
27.6352  320.469
27.6646  319.884
27.6941  318.262
27.7236  318.832
27.7531  318.963
27.7826  316.93
27.812  318.854
27.8415  317.853
27.871  317.683
27.9005  316.937
27.93  316.847
27.9595  318.213
27.9889  316.7
28.0184  317.011
28.0479  317.895
28.0774  314.845
28.1069  315.693
28.1363  316.224
28.1658  314.82
28.1953  315.022
28.2248  315.541
28.2543  315.756
28.2837  315.466
28.3132  315.642
28.3427  315.655
28.3722  313.265
28.4017  313.927
28.4312  312.364
28.4606  310.639
28.4901  310.403
28.5196  311.901
28.5491  311.431
28.5786  310.139
28.608  309.668
28.6375  309.643
28.667  310.171
28.6965  308.679
28.726  308.787
28.7555  308.684
28.7849  310.124
28.8144  309.79
28.8439  309.315
28.8734  307.601
28.9029  308.952
28.9323  308.341
28.9618  309.791
28.9913  309.353
29.0208  308.021
29.0503  309.697
29.0798  308.663
29.1092  310.197
29.1387  308.065
29.1682  309.202
29.1977  308.575
29.2272  309.507
29.2566  309.667
29.2861  310.816
29.3156  310.914
29.3451  311.799
29.3746  313.473
29.404  313.906
29.4335  314.526
29.463  312.84
29.4925  311.286
29.522  309.881
29.5515  308.183
29.5809  308.665
29.6104  308.197
29.6399  307.343
29.6694  306.71
29.6989  305.717
29.7283  306.121
29.7578  304.575
29.7873  303.238
29.8168  300.201
29.8463  299.715
29.8758  297.996
29.9052  294.488
29.9347  291.973
29.9642  288.397
29.9937  287.087
30.0232  283.575
30.0526  278.092
30.0821  275.698
30.1116  273.216
30.1411  266.593
30.1706  262.523
30.2001  257.513
30.2295  251.727
30.259  244.18
30.2885  239.718
30.318  234.424
30.3475  231.805
30.3769  230.257
30.4064  227.804
30.4359  225.122
30.4654  222.152
30.4949  217.768
30.5243  215.737
30.5538  211.449
30.5833  208.526
30.6128  205.782
30.6423  202.709
30.6718  200.32
30.7012  195.125
30.7307  191.498
30.7602  188.271
30.7897  185.592
30.8192  181.678
30.8486  177.585
30.8781  174.298
30.9076  171.588
30.9371  167.783
30.9666  164.829
30.9961  161.396
31.0255  157.417
31.055  153.334
31.0845  149.529
31.114  147.025
31.1435  144.167
31.1729  140.295
31.2024  138.195
31.2319  134.421
31.2614  131.145
31.2909  127.668
31.3204  124.709
31.3498  121.045
31.3793  118.401
31.4088  114.539
31.4383  111.97
31.4678  109.644
31.4972  106.565
31.5267  103.484
31.5562  100.519
31.5857  98.6577
31.6152  94.5982
31.6446  91.3816
31.6741  86.7834
31.7036  84.337
31.7331  83.631
31.7626  81.1388
31.7921  78.1121
31.8215  76.6562
31.851  73.8958
31.8805  70.1858
31.91  64.8866
31.9395  65.2349
31.9689  56.601
31.9984  62.0107
32.0279  49.2705
32.0574  47.0571
32.0869  46.0396