File: Figure1_XRD/091.xy
# == pyFAI calibration ==
# Distance Sample to Detector: 0.115075 m
# PONI: 5.477e-03, 4.716e-03 m
# Rotations: 0.004686 0.005536 0.000000 rad
#
# == Fit2d calibration ==
# Distance Sample-beamCenter: 115.078 mm
# Center: x=55.690, y=81.516 pix
# Tilt: 0.416 deg  TiltPlanRot: 130.247 deg
#
# Detector Detector	 Spline= None	 PixelSize= 7.500e-05, 7.500e-05 m
#    Detector has a mask: False
#    Detector has a dark current: False
#    detector has a flat field: False
#
# Wavelength: 4.833e-11 m
# Mask applied: None
# Dark current applied: None
# Flat field applied: None
# Polarization factor: None
# Normalization factor: None
#
# 2th_deg	 I
1.13121  57.4683
1.16069  84.4881
1.19017  111.191
1.21965  130.326
1.24914  139.07
1.27862  156.758
1.3081  163.638
1.33758  170.147
1.36706  178.833
1.39654  186.501
1.42603  192.878
1.45551  198.744
1.48499  203.808
1.51447  205.794
1.54395  208.979
1.57343  213.27
1.60291  216.641
1.6324  220.017
1.66188  226.902
1.69136  226.304
1.72084  229.431
1.75032  232.095
1.7798  230.831
1.80929  232.159
1.83877  235.86
1.86825  237.012
1.89773  237.815
1.92721  240.974
1.95669  244.081
1.98618  247.977
2.01566  251.11
2.04514  254.041
2.07462  257.384
2.1041  259.599
2.13358  263.217
2.16307  264.771
2.19255  263.909
2.22203  266.839
2.25151  268.335
2.28099  269.507
2.31047  270.076
2.33995  271.896
2.36944  273.886
2.39892  274.356
2.4284  274.67
2.45788  273.923
2.48736  275.241
2.51684  276.036
2.54633  275.686
2.57581  274.88
2.60529  273.845
2.63477  274.855
2.66425  274.328
2.69373  274.577
2.72322  272.095
2.7527  272.111
2.78218  271.815
2.81166  270.816
2.84114  270.151
2.87062  270.442
2.9001  271.528
2.92959  271.451
2.95907  270.338
2.98855  269.799
3.01803  267.897
3.04751  267.585
3.07699  268.661
3.10648  267.283
3.13596  267.17
3.16544  265.804
3.19492  267.322
3.2244  268.047
3.25388  265.37
3.28337  265.957
3.31285  265.45
3.34233  263.976
3.37181  264.521
3.40129  264.618
3.43077  264.06
3.46025  261.848
3.48974  262.935
3.51922  262.278
3.5487  260.649
3.57818  261.771
3.60766  260.931
3.63714  261.119
3.66663  257.788
3.69611  255.195
3.72559  255.117
3.75507  257.772
3.78455  257.819
3.81403  260.194
3.84352  264.508
3.873  271.535
3.90248  273.636
3.93196  271.923
3.96144  267.776
3.99092  265.215
4.0204  261.239
4.04989  256.731
4.07937  256.012
4.10885  254.552
4.13833  252.19
4.16781  250.439
4.19729  249.338
4.22678  247.905
4.25626  246.639
4.28574  247.271
4.31522  245.773
4.3447  246.222
4.37418  245.289
4.40367  244.168
4.43315  242.146
4.46263  241.895
4.49211  240.218
4.52159  238.889
4.55107  238.416
4.58055  238.472
4.61004  237.335
4.63952  236.705
4.669  236.755
4.69848  235.155
4.72796  235.644
4.75744  235.117
4.78693  234.539
4.81641  234.251
4.84589  234.765
4.87537  233.384
4.90485  233.181
4.93433  231.743
4.96382  231.339
4.9933  230.754
5.02278  229.54
5.05226  231.06
5.08174  230.31
5.11122  228.447
5.14071  230.579
5.17019  229.712
5.19967  227.508
5.22915  227.536
5.25863  227.212
5.28811  226.867
5.31759  226.637
5.34708  226.432
5.37656  225.832
5.40604  226.517
5.43552  225.667
5.465  224.278
5.49448  225.798
5.52397  225.148
5.55345  223.992
5.58293  225.316
5.61241  225.168
5.64189  224.668
5.67137  225.085
5.70086  224.421
5.73034  224.475
5.75982  226.637
5.7893  226.278
5.81878  225.405
5.84826  226.684
5.87774  227.285
5.90723  225.657
5.93671  224.172
5.96619  223.37
5.99567  223.75
6.02515  223.035
6.05463  223.169
6.08412  223.319
6.1136  222.738
6.14308  222.417
6.17256  222.397
6.20204  222.651
6.23152  222.532
6.26101  222.899
6.29049  222.571
6.31997  223.367
6.34945  223.795
6.37893  223.328
6.40841  224.252
6.43789  224.944
6.46738  225.972
6.49686  224.767
6.52634  225.47
6.55582  226.001
6.5853  227.152
6.61478  227.033
6.64427  225.946
6.67375  225.732
6.70323  226.502
6.73271  225.843
6.76219  225.065
6.79167  226.105
6.82116  227.255
6.85064  226.921
6.88012  226.677
6.9096  226.801
6.93908  227.039
6.96856  227.81
6.99804  228.405
7.02753  228.825
7.05701  230.23
7.08649  229.91
7.11597  229.345
7.14545  230.481
7.17493  230.492
7.20442  229.666
7.2339  229.547
7.26338  230.209
7.29286  231.455
7.32234  232.775
7.35182  231.458
7.38131  231.492
7.41079  231.83
7.44027  233.482
7.46975  234.09
7.49923  233.699
7.52871  233.239
7.55819  232.64
7.58768  233.337
7.61716  234.542
7.64664  234.662
7.67612  235.712
7.7056  236.046
7.73508  235.426
7.76457  235.664
7.79405  236.854
7.82353  236.668
7.85301  236.63
7.88249  237.986
7.91197  237.615
7.94146  239.281
7.97094  240.507
8.00042  241.077
8.0299  240.97
8.05938  240.926
8.08886  243.035
8.11835  243.469
8.14783  244.472
8.17731  245.445
8.20679  245.863
8.23627  246.057
8.26575  246.346
8.29523  246.531
8.32472  246.955
8.3542  248.738
8.38368  248.973
8.41316  254.185
8.44264  260.039
8.47212  266.164
8.50161  275.259
8.53109  283.829
8.56057  297.074
8.59005  313.812
8.61953  335.352
8.64901  356.817
8.6785  364.422
8.70798  359.522
8.73746  341.077
8.76694  317.802
8.79642  299.526
8.8259  287.203
8.85538  278.959
8.88487  277.63
8.91435  277.111
8.94383  277.262
8.97331  277.553
9.00279  277.148
9.03227  278.046
9.06176  278.832
9.09124  279.202
9.12072  279.075
9.1502  277.859
9.17968  279.429
9.20916  280.924
9.23865  281.824
9.26813  283.452
9.29761  285.515
9.32709  286.259
9.35657  287.923
9.38605  290.072
9.41553  291.365
9.44502  292.748
9.4745  292.368
9.50398  292.413
9.53346  294.42
9.56294  294.833
9.59242  295.363
9.62191  295.799
9.65139  296.693
9.68087  296.619
9.71035  295.919
9.73983  295.431
9.76931  295.609
9.7988  295.629
9.82828  294.254
9.85776  294.578
9.88724  294.562
9.91672  294.939
9.9462  294.385
9.97568  295.468
10.0052  297.501
10.0346  298.029
10.0641  298.027
10.0936  299.121
10.1231  301.284
10.1526  309.321
10.1821  322.547
10.2115  345.643
10.241  383.012
10.2705  422.029
10.3  440.096
10.3295  424.296
10.3589  396.312
10.3884  381.634
10.4179  374.167
10.4474  363.107
10.4769  348.052
10.5064  332.771
10.5358  320.019
10.5653  315.529
10.5948  312.016
10.6243  307.292
10.6538  302.418
10.6832  298.491
10.7127  293.675
10.7422  289.065
10.7717  287.881
10.8012  285.957
10.8307  283.886
10.8601  282.539
10.8896  281.315
10.9191  281.381
10.9486  279.985
10.9781  279.617
11.0075  278.87
11.037  277.701
11.0665  277.787
11.096  277.925
11.1255  278.494
11.1549  277.81
11.1844  277.866
11.2139  278.837
11.2434  278.67
11.2729  278.036
11.3024  279.312
11.3318  279.676
11.3613  280.58
11.3908  281.798
11.4203  282.919
11.4498  283.998
11.4792  286.025
11.5087  288.992
11.5382  292.615
11.5677  297.407
11.5972  304.96
11.6267  316.167
11.6561  334.973
11.6856  354.113
11.7151  371.47
11.7446  385.782
11.7741  383.814
11.8035  358.077
11.833  326.757
11.8625  303.501
11.892  292.045
11.9215  285.764
11.951  282.08
11.9804  281.205
12.0099  280.798
12.0394  281.003
12.0689  280.652
12.0984  280.221
12.1278  280.089
12.1573  280.554
12.1868  280.986
12.2163  280.913
12.2458  281.204
12.2752  281.084
12.3047  281.216
12.3342  280.739
12.3637  280.638
12.3932  281.375
12.4227  283.239
12.4521  283.788
12.4816  282.839
12.5111  285.037
12.5406  286.52
12.5701  286.328
12.5995  287.879
12.629  288.02
12.6585  288.324
12.688  287.923
12.7175  287.764
12.747  289.348
12.7764  290.028
12.8059  290.938
12.8354  290.376
12.8649  290.81
12.8944  293.101
12.9238  295.327
12.9533  296.036
12.9828  297.222
13.0123  301.127
13.0418  304.363
13.0713  306.869
13.1007  310.937
13.1302  314.869
13.1597  321.47
13.1892  331.239
13.2187  343.221
13.2481  362.643
13.2776  386.341
13.3071  406.541
13.3366  416.165
13.3661  412.71
13.3955  391.36
13.425  360.848
13.4545  339.717
13.484  326.148
13.5135  319.517
13.543  317.311
13.5724  319.736
13.6019  327.953
13.6314  318.133
13.6609  303.562
13.6904  305.244
13.7198  308.192
13.7493  311.893
13.7788  315.47
13.8083  317.63
13.8378  320.385
13.8673  323.765
13.8967  330.743
13.9262  336.54
13.9557  337.334
13.9852  331.362
14.0147  324.892
14.0441  319.888
14.0736  316.697
14.1031  315.369
14.1326  320.823
14.1621  329.083
14.1916  327.284
14.221  325.782
14.2505  323.996
14.28  322.336
14.3095  321.065
14.339  320.81
14.3684  320.999
14.3979  322.285
14.4274  322.417
14.4569  323.305
14.4864  325.986
14.5158  329.475
14.5453  334.939
14.5748  343.848
14.6043  354.249
14.6338  368.273
14.6633  384.416
14.6927  393.954
14.7222  394.811
14.7517  387.551
14.7812  374.363
14.8107  359.666
14.8401  351.726
14.8696  344.075
14.8991  337.693
14.9286  335.777
14.9581  334.522
14.9876  332.991
15.017  332.649
15.0465  334.93
15.076  336.909
15.1055  338.208
15.135  340.362
15.1644  341.347
15.1939  342.358
15.2234  342.176
15.2529  341.001
15.2824  337.834
15.3119  332.712
15.3413  328.961
15.3708  325.513
15.4003  322.101
15.4298  320.738
15.4593  320.033
15.4887  319.267
15.5182  317.372
15.5477  317.25
15.5772  316.278
15.6067  315.872
15.6361  316.341
15.6656  316.841
15.6951  316.059
15.7246  315.686
15.7541  316.173
15.7836  316.061
15.813  317.552
15.8425  317.572
15.872  317.284
15.9015  317.653
15.931  317.896
15.9604  318.117
15.9899  318.31
16.0194  318.941
16.0489  318.942
16.0784  318.81
16.1079  319.119
16.1373  319.294
16.1668  321.269
16.1963  320.948
16.2258  321.884
16.2553  322.045
16.2847  321.759
16.3142  321.194
16.3437  321.386
16.3732  321.437
16.4027  321.695
16.4322  321.651
16.4616  320.306
16.4911  320.354
16.5206  320.345
16.5501  320.267
16.5796  319.537
16.609  319.716
16.6385  319.611
16.668  320.672
16.6975  319.809
16.727  319.746
16.7564  319.929
16.7859  320.61
16.8154  320.973
16.8449  320.656
16.8744  320.363
16.9039  322.049
16.9333  325.64
16.9628  328.032
16.9923  330.927
17.0218  332.293
17.0513  333.253
17.0807  333.796
17.1102  331.24
17.1397  327.465
17.1692  325.91
17.1987  325.111
17.2282  325.315
17.2576  323.007
17.2871  322.817
17.3166  322.873
17.3461  323.397
17.3756  324.177
17.405  323.631
17.4345  322.625
17.464  322.285
17.4935  321.978
17.523  320.437
17.5525  320.945
17.5819  320.304
17.6114  321.074
17.6409  322.706
17.6704  321.965
17.6999  321.278
17.7293  321.37
17.7588  322.084
17.7883  323.399
17.8178  324.052
17.8473  325.325
17.8767  326.179
17.9062  328.961
17.9357  331.696
17.9652  333.047
17.9947  335.122
18.0242  336.337
18.0536  337.284
18.0831  337.688
18.1126  337.16
18.1421  335.55
18.1716  333.735
18.201  333.693
18.2305  333.469
18.26  331.999
18.2895  330.73
18.319  330.675
18.3485  330.805
18.3779  329.634
18.4074  328.235
18.4369  327.468
18.4664  326.888
18.4959  326.96
18.5253  326.282
18.5548  327.394
18.5843  327.83
18.6138  327.207
18.6433  327.624
18.6728  327.785
18.7022  328.248
18.7317  328.004
18.7612  326.233
18.7907  325.146
18.8202  325.798
18.8496  324.323
18.8791  321.861
18.9086  321.358
18.9381  320.739
18.9676  321.337
18.997  320.55
19.0265  318.668
19.056  317.055
19.0855  318.214
19.115  318.256
19.1445  318.315
19.1739  319.729
19.2034  319.956
19.2329  317.526
19.2624  317.286
19.2919  318.184
19.3213  318.006
19.3508  317.698
19.3803  317.569
19.4098  317.706
19.4393  318.124
19.4688  317.007
19.4982  316.722
19.5277  317.122
19.5572  318.003
19.5867  316.417
19.6162  315.748
19.6456  317.607
19.6751  319.211
19.7046  317.166
19.7341  317.876
19.7636  318.073
19.7931  317.679
19.8225  318.286
19.852  319.055
19.8815  318.809
19.911  318.96
19.9405  318.936
19.9699  317.019
19.9994  319.056
20.0289  320.15
20.0584  321.032
20.0879  321.79
20.1173  324.478
20.1468  326.409
20.1763  330.465
20.2058  334.086
20.2353  341.392
20.2648  350.979
20.2942  362.912
20.3237  372.929
20.3532  377.888
20.3827  379.961
20.4122  375.017
20.4416  366.803
20.4711  355.712
20.5006  345.184
20.5301  338.195
20.5596  335.644
20.5891  332.935
20.6185  331.293
20.648  332.627
20.6775  331.199
20.707  329.49
20.7365  327.038
20.7659  325.805
20.7954  325.176
20.8249  324.656
20.8544  322.956
20.8839  323.267
20.9134  323.535
20.9428  323.315
20.9723  322.475
21.0018  321.914
21.0313  320.161
21.0608  319.995
21.0902  319.779
21.1197  319.526
21.1492  318.408
21.1787  318.527
21.2082  318.231
21.2377  318.745
21.2671  318.608
21.2966  318.864
21.3261  319.823
21.3556  319.516
21.3851  317.682
21.4145  318.306
21.444  318.482
21.4735  320.125
21.503  320.289
21.5325  319.887
21.5619  319.813
21.5914  321.74
21.6209  322.472
21.6504  323.509
21.6799  321.414
21.7094  322.8
21.7388  323.781
21.7683  324.07
21.7978  322.764
21.8273  322.279
21.8568  321.423
21.8862  321.866
21.9157  321.756
21.9452  322.301
21.9747  322.456
22.0042  322.723
22.0337  322.676
22.0631  320.017
22.0926  319.763
22.1221  321.248
22.1516  321.074
22.1811  323.378
22.2105  325.013
22.24  325.768
22.2695  328.87
22.299  329.579
22.3285  331.146
22.358  332.224
22.3874  334.865
22.4169  336.448
22.4464  337.154
22.4759  338.823
22.5054  339.123
22.5348  341.292
22.5643  342.462
22.5938  342.096
22.6233  342.58
22.6528  340.621
22.6822  336.558
22.7117  334.563
22.7412  331.055
22.7707  332.411
22.8002  330.365
22.8297  330.183
22.8591  329.249
22.8886  328.831
22.9181  329.286
22.9476  330.604
22.9771  330.467
23.0065  333.048
23.036  334.567
23.0655  337.003
23.095  337.749
23.1245  341.583
23.154  339.882
23.1834  342.414
23.2129  348.587
23.2424  352.91
23.2719  358.82
23.3014  366.462
23.3308  370.641
23.3603  369.615
23.3898  365.618
23.4193  358.629
23.4488  356.167
23.4783  354.416
23.5077  353.71
23.5372  354.592
23.5667  352.399
23.5962  349.051
23.6257  343.89
23.6551  343.326
23.6846  341.501
23.7141  340.595
23.7436  340.48
23.7731  341.882
23.8025  341.098
23.832  343.495
23.8615  343.017
23.891  344.614
23.9205  344.233
23.95  345.45
23.9794  347.436
24.0089  348.057
24.0384  347.856
24.0679  349.462
24.0974  347.958
24.1268  345.046
24.1563  344.854
24.1858  343.874
24.2153  341.465
24.2448  341.329
24.2743  344.635
24.3037  346.651
24.3332  347.983
24.3627  352.073
24.3922  355.728
24.4217  356.399
24.4511  355.087
24.4806  351.958
24.5101  347.445
24.5396  341.33
24.5691  336.45
24.5986  335.103
24.628  331.742
24.6575  330.808
24.687  330.278
24.7165  329.183
24.746  329.352
24.7754  329.86
24.8049  328.334
24.8344  327.862
24.8639  327.519
24.8934  327.362
24.9228  326.39
24.9523  326.781
24.9818  328.052
25.0113  326.385
25.0408  326.936
25.0703  326.755
25.0997  328.009
25.1292  328.948
25.1587  326.852
25.1882  328.708
25.2177  328.103
25.2471  329.793
25.2766  333.133
25.3061  333.116
25.3356  335.258
25.3651  337.578
25.3946  339.097
25.424  341.296
25.4535  343.066
25.483  346.423
25.5125  347.086
25.542  348.266
25.5714  350.459
25.6009  350.608
25.6304  351.027
25.6599  349.784
25.6894  350.115
25.7189  348.731
25.7483  347.145
25.7778  343.231
25.8073  341.353
25.8368  338.637
25.8663  337.166
25.8957  336.776
25.9252  334.806
25.9547  333.319
25.9842  332.59
26.0137  332.76
26.0431  330.763
26.0726  330.346
26.1021  328.769
26.1316  329.565
26.1611  328.502
26.1906  328.861
26.22  329.404
26.2495  328.796
26.279  328.257
26.3085  328.532
26.338  331.3
26.3674  332.055
26.3969  333.932
26.4264  338.514
26.4559  346.4
26.4854  348.073
26.5149  345.634
26.5443  339.972
26.5738  334.526
26.6033  331.05
26.6328  328.828
26.6623  328.124
26.6917  328.441
26.7212  327.126
26.7507  328.566
26.7802  328.051
26.8097  328.212
26.8392  328.419
26.8686  327.129
26.8981  326.573
26.9276  326.937
26.9571  324.976
26.9866  325.804
27.016  323.959
27.0455  323.94
27.075  324.311
27.1045  324.292
27.134  324.125
27.1634  323.584
27.1929  323.518
27.2224  323.042
27.2519  322.63
27.2814  324.115
27.3109  325.842
27.3403  325.353
27.3698  325.888
27.3993  327.902
27.4288  329.237
27.4583  331.08
27.4877  333.902
27.5172  330.692
27.5467  325.146
27.5762  327.01
27.6057  331.908
27.6352  340.932
27.6646  354.229
27.6941  364.673
27.7236  360.988
27.7531  350.326
27.7826  337.289
27.812  328.318
27.8415  328.576
27.871  332.518
27.9005  329.132
27.93  328.464
27.9595  326.507
27.9889  324.054
28.0184  323.705
28.0479  323.897
28.0774  322
28.1069  321.456
28.1363  320.865
28.1658  320.378
28.1953  320.371
28.2248  318.897
28.2543  319.918
28.2837  319.409
28.3132  320.2
28.3427  317.82
28.3722  320.589
28.4017  319.385
28.4312  320.285
28.4606  319.497
28.4901  318.115
28.5196  318.818
28.5491  319.057
28.5786  318.231
28.608  317.244
28.6375  316.956
28.667  315.487
28.6965  315.736
28.726  314.668
28.7555  315.2
28.7849  314.227
28.8144  313.318
28.8439  313.437
28.8734  314.426
28.9029  314.102
28.9323  313.246
28.9618  313.467
28.9913  312.384
29.0208  311.518
29.0503  312.215
29.0798  312.546
29.1092  311.851
29.1387  311.193
29.1682  311.333
29.1977  312.233
29.2272  312.967
29.2566  311.441
29.2861  311.443
29.3156  312.069
29.3451  311.114
29.3746  312.285
29.404  311.013
29.4335  311.543
29.463  314.245
29.4925  312.294
29.522  314.562
29.5515  315.425
29.5809  314.076
29.6104  315.785
29.6399  314.1
29.6694  313.296
29.6989  312.859
29.7283  311.809
29.7578  309.844
29.7873  307.951
29.8168  305.962
29.8463  303.373
29.8758  302.233
29.9052  300.737
29.9347  297.745
29.9642  294.363
29.9937  292.497
30.0232  287.446
30.0526  284.255
30.0821  279.982
30.1116  275.35
30.1411  273.353
30.1706  266.796
30.2001  261.891
30.2295  256.198
30.259  249.343
30.2885  242.759
30.318  239.584
30.3475  235.408
30.3769  232.611
30.4064  230.756
30.4359  226.406
30.4654  225.087
30.4949  221.452
30.5243  219.746
30.5538  214.749
30.5833  212.325
30.6128  208.861
30.6423  204.534
30.6718  201.421
30.7012  197.408
30.7307  194.468
30.7602  191.272
30.7897  186.556
30.8192  183.287
30.8486  180.97
30.8781  177.055
30.9076  173.367
30.9371  169.628
30.9666  166.637
30.9961  162.687
31.0255  159.872
31.055  156.496
31.0845  153.05
31.114  149.596
31.1435  145.282
31.1729  142.031
31.2024  137.909
31.2319  136.238
31.2614  131.969
31.2909  129.33
31.3204  126.069
31.3498  122.623
31.3793  120.14
31.4088  116.774
31.4383  113.534
31.4678  110.529
31.4972  106.536
31.5267  103.281
31.5562  99.2171
31.5857  98.706
31.6152  95.9052
31.6446  93.0567
31.6741  89.1502
31.7036  85.9118
31.7331  82.9991
31.7626  79.5883
31.7921  78.7583
31.8215  74.435
31.851  72.0275
31.8805  68.9267
31.91  66.2889
31.9395  62.7858
31.9689  59.7938
31.9984  56.3158
32.0279  60.0485
32.0574  39.2142
32.0869  45.2625