File: Figure1_XRD/095.xy
# == pyFAI calibration ==
# Distance Sample to Detector: 0.115075 m
# PONI: 5.477e-03, 4.716e-03 m
# Rotations: 0.004686 0.005536 0.000000 rad
#
# == Fit2d calibration ==
# Distance Sample-beamCenter: 115.078 mm
# Center: x=55.690, y=81.516 pix
# Tilt: 0.416 deg  TiltPlanRot: 130.247 deg
#
# Detector Detector	 Spline= None	 PixelSize= 7.500e-05, 7.500e-05 m
#    Detector has a mask: False
#    Detector has a dark current: False
#    detector has a flat field: False
#
# Wavelength: 4.833e-11 m
# Mask applied: None
# Dark current applied: None
# Flat field applied: None
# Polarization factor: None
# Normalization factor: None
#
# 2th_deg	 I
1.13121  68.5107
1.16069  87.4752
1.19017  115.241
1.21965  133.011
1.24914  140.239
1.27862  153.744
1.3081  161.625
1.33758  173.935
1.36706  181.41
1.39654  186.896
1.42603  190.854
1.45551  197.132
1.48499  201.843
1.51447  207.663
1.54395  211.809
1.57343  215.778
1.60291  215.374
1.6324  220.655
1.66188  227.894
1.69136  225.525
1.72084  228.948
1.75032  232.606
1.7798  231.673
1.80929  234.7
1.83877  236.975
1.86825  237.375
1.89773  238.171
1.92721  241.435
1.95669  246.234
1.98618  249.022
2.01566  252.114
2.04514  255.33
2.07462  257.368
2.1041  259.819
2.13358  262.379
2.16307  266.019
2.19255  267.434
2.22203  269.496
2.25151  270.533
2.28099  271.146
2.31047  272.385
2.33995  274.441
2.36944  274.632
2.39892  275.621
2.4284  277.831
2.45788  277.213
2.48736  274.628
2.51684  274.789
2.54633  276.137
2.57581  276.258
2.60529  275.131
2.63477  275.208
2.66425  275.876
2.69373  275.449
2.72322  273.823
2.7527  274.36
2.78218  273.925
2.81166  272.52
2.84114  272.426
2.87062  272.374
2.9001  271.606
2.92959  271.342
2.95907  269.611
2.98855  268.756
3.01803  268.875
3.04751  269.887
3.07699  268.971
3.10648  268.67
3.13596  267.467
3.16544  267.095
3.19492  268.194
3.2244  268.491
3.25388  267.731
3.28337  268.394
3.31285  267.26
3.34233  266.204
3.37181  266.672
3.40129  266.885
3.43077  264.188
3.46025  264.013
3.48974  265.134
3.51922  264.001
3.5487  264.306
3.57818  262.126
3.60766  262.261
3.63714  262.667
3.66663  259.897
3.69611  258.106
3.72559  256.896
3.75507  258.1
3.78455  258.799
3.81403  260.095
3.84352  261.871
3.873  270.107
3.90248  274.474
3.93196  273.599
3.96144  270.681
3.99092  267.671
4.0204  263.977
4.04989  261.242
4.07937  259.871
4.10885  258.119
4.13833  255.322
4.16781  253.624
4.19729  252.743
4.22678  250.778
4.25626  249.544
4.28574  249.651
4.31522  247.176
4.3447  246.432
4.37418  246.927
4.40367  246.084
4.43315  245.599
4.46263  245.355
4.49211  243.675
4.52159  241.994
4.55107  241.055
4.58055  240.305
4.61004  240.568
4.63952  240.231
4.669  238.116
4.69848  236.289
4.72796  236.706
4.75744  236.526
4.78693  237.446
4.81641  237.095
4.84589  235.911
4.87537  235.186
4.90485  236.278
4.93433  235.953
4.96382  233.911
4.9933  234.648
5.02278  233.193
5.05226  232.847
5.08174  231.845
5.11122  232.358
5.14071  231.556
5.17019  230.55
5.19967  230.072
5.22915  229.827
5.25863  229.721
5.28811  228.606
5.31759  229.474
5.34708  229.024
5.37656  228.192
5.40604  227.19
5.43552  226.26
5.465  227.416
5.49448  226.981
5.52397  226.465
5.55345  225.524
5.58293  225.325
5.61241  226.664
5.64189  227.921
5.67137  228.347
5.70086  226.808
5.73034  226.444
5.75982  226.294
5.7893  226.758
5.81878  227.613
5.84826  228.057
5.87774  228.51
5.90723  228.521
5.93671  227.836
5.96619  227.273
5.99567  226.2
6.02515  225.927
6.05463  226.494
6.08412  226.535
6.1136  225.238
6.14308  225.123
6.17256  224.54
6.20204  224.362
6.23152  225.139
6.26101  225.551
6.29049  225.397
6.31997  225.943
6.34945  225.365
6.37893  225.639
6.40841  227.745
6.43789  227.777
6.46738  227.229
6.49686  226.644
6.52634  226.426
6.55582  227.193
6.5853  227.087
6.61478  227.606
6.64427  228.999
6.67375  227.669
6.70323  227.557
6.73271  227.734
6.76219  228.639
6.79167  229.164
6.82116  228.533
6.85064  228.695
6.88012  228.526
6.9096  229.243
6.93908  229.877
6.96856  229.352
6.99804  229.813
7.02753  231.151
7.05701  231.754
7.08649  231.472
7.11597  232.153
7.14545  232.969
7.17493  231.581
7.20442  233.423
7.2339  232.989
7.26338  232.652
7.29286  232.995
7.32234  233.555
7.35182  233.814
7.38131  233.101
7.41079  232.897
7.44027  232.957
7.46975  234.847
7.49923  236.258
7.52871  236.386
7.55819  236.403
7.58768  235.899
7.61716  237.321
7.64664  238.42
7.67612  239.209
7.7056  239.438
7.73508  239.003
7.76457  238.913
7.79405  240.486
7.82353  239.95
7.85301  239.802
7.88249  241.529
7.91197  241.24
7.94146  242.207
7.97094  242.442
8.00042  243.439
8.0299  244.464
8.05938  244.817
8.08886  245.061
8.11835  246.248
8.14783  246.55
8.17731  247.929
8.20679  248.088
8.23627  247.967
8.26575  248.763
8.29523  249.576
8.32472  250.015
8.3542  250.731
8.38368  251.674
8.41316  255.158
8.44264  258.831
8.47212  263.803
8.50161  270.712
8.53109  278.502
8.56057  287.229
8.59005  299.556
8.61953  312.279
8.64901  330.142
8.6785  347.52
8.70798  360.484
8.73746  363.457
8.76694  356.005
8.79642  336.373
8.8259  316.462
8.85538  300.487
8.88487  295.869
8.91435  292.783
8.94383  286.592
8.97331  282.96
9.00279  281.938
9.03227  281.834
9.06176  281.054
9.09124  282.157
9.12072  282.918
9.1502  281.057
9.17968  280.314
9.20916  282.297
9.23865  284.186
9.26813  285.136
9.29761  287.236
9.32709  287.99
9.35657  288.992
9.38605  290.643
9.41553  291.907
9.44502  291.473
9.4745  292.181
9.50398  293.76
9.53346  296.007
9.56294  297.639
9.59242  296.733
9.62191  296.661
9.65139  297.423
9.68087  297.296
9.71035  297.715
9.73983  297.623
9.76931  296.889
9.7988  295.924
9.82828  297.438
9.85776  296.966
9.88724  295.943
9.91672  295.565
9.9462  295.908
9.97568  296.374
10.0052  296.648
10.0346  296.773
10.0641  296.759
10.0936  295.116
10.1231  295.238
10.1526  296.784
10.1821  300.432
10.2115  309.09
10.241  321.975
10.2705  344.19
10.3  380.21
10.3295  419.564
10.3589  442.942
10.3884  435.184
10.4179  410.55
10.4474  391.451
10.4769  379.634
10.5064  367.277
10.5358  353.028
10.5653  338.359
10.5948  329.473
10.6243  322.228
10.6538  315.923
10.6832  310.841
10.7127  305.803
10.7422  301.419
10.7717  296.997
10.8012  293.617
10.8307  290.302
10.8601  288.341
10.8896  286.103
10.9191  285.513
10.9486  285.15
10.9781  285.172
11.0075  284.003
11.037  283.124
11.0665  281.562
11.096  280.873
11.1255  281.37
11.1549  281.258
11.1844  280.122
11.2139  281.888
11.2434  282.153
11.2729  280.356
11.3024  280.78
11.3318  280.516
11.3613  281.997
11.3908  284.261
11.4203  284.361
11.4498  285.86
11.4792  287.943
11.5087  289.805
11.5382  292.265
11.5677  297.897
11.5972  305.097
11.6267  319.526
11.6561  337.979
11.6856  357.987
11.7151  377.595
11.7446  391.542
11.7741  391.25
11.8035  371.267
11.833  342.076
11.8625  316.519
11.892  300.567
11.9215  292.381
11.951  288.793
11.9804  286.716
12.0099  284.978
12.0394  284.923
12.0689  284.612
12.0984  283.812
12.1278  282.512
12.1573  284.492
12.1868  284.577
12.2163  283.407
12.2458  283.762
12.2752  283.917
12.3047  284.029
12.3342  283.558
12.3637  283.596
12.3932  284.761
12.4227  286.219
12.4521  286.774
12.4816  287.343
12.5111  287.244
12.5406  287.627
12.5701  288.827
12.5995  290.354
12.629  290.444
12.6585  290.555
12.688  290.98
12.7175  290.592
12.747  291.452
12.7764  291.962
12.8059  291.99
12.8354  292.46
12.8649  292.72
12.8944  293.106
12.9238  295.441
12.9533  295.693
12.9828  297.16
13.0123  299.268
13.0418  302.671
13.0713  306.117
13.1007  311.136
13.1302  314.012
13.1597  320.644
13.1892  329.135
13.2187  341.235
13.2481  357.243
13.2776  379.866
13.3071  399.519
13.3366  412.753
13.3661  412.825
13.3955  400.138
13.425  379.66
13.4545  358.002
13.484  343.919
13.5135  337.402
13.543  336.278
13.5724  336.009
13.6019  323.516
13.6314  313.327
13.6609  305.448
13.6904  306.164
13.7198  307.539
13.7493  308.476
13.7788  311.884
13.8083  319.79
13.8378  328.147
13.8673  337.358
13.8967  343.314
13.9262  344.902
13.9557  343.728
13.9852  340.429
14.0147  336.634
14.0441  331.807
14.0736  327.673
14.1031  328.672
14.1326  331.061
14.1621  329.602
14.1916  338.223
14.221  341.189
14.2505  336.675
14.28  333.742
14.3095  330.931
14.339  328.812
14.3684  329.026
14.3979  328.96
14.4274  327.476
14.4569  326.598
14.4864  327.031
14.5158  329.064
14.5453  330.445
14.5748  333.634
14.6043  336.415
14.6338  341.936
14.6633  352.324
14.6927  364.188
14.7222  375.202
14.7517  385.278
14.7812  389.585
14.8107  387.387
14.8401  381.088
14.8696  371.461
14.8991  360.978
14.9286  353.701
14.9581  346.593
14.9876  341.427
15.017  338.156
15.0465  335.55
15.076  333.862
15.1055  335.071
15.135  335.684
15.1644  338.241
15.1939  340.191
15.2234  342.766
15.2529  344.838
15.2824  345.356
15.3119  346.019
15.3413  343.88
15.3708  341.342
15.4003  336.449
15.4298  333.03
15.4593  330.596
15.4887  327.892
15.5182  325.452
15.5477  323.093
15.5772  321.929
15.6067  321.115
15.6361  322.047
15.6656  321.25
15.6951  319.353
15.7246  319
15.7541  319.831
15.7836  319.956
15.813  318.746
15.8425  319.028
15.872  320.879
15.9015  321.296
15.931  322.78
15.9604  323.925
15.9899  324.089
16.0194  325.744
16.0489  326.443
16.0784  326.798
16.1079  325.892
16.1373  325.657
16.1668  326.116
16.1963  326.46
16.2258  327.8
16.2553  326.783
16.2847  326.918
16.3142  327.885
16.3437  327.172
16.3732  326.096
16.4027  325.823
16.4322  325.729
16.4616  324.576
16.4911  324.01
16.5206  321.858
16.5501  322.792
16.5796  323.156
16.609  322.373
16.6385  322.126
16.668  322.63
16.6975  321.554
16.727  322.163
16.7564  322.526
16.7859  322.598
16.8154  323.691
16.8449  323.302
16.8744  323.1
16.9039  324.029
16.9333  323.71
16.9628  324.806
16.9923  326.721
17.0218  329.436
17.0513  330.365
17.0807  333.187
17.1102  334.506
17.1397  335.07
17.1692  334.424
17.1987  332.941
17.2282  330.478
17.2576  330.638
17.2871  329.957
17.3166  328.058
17.3461  328.377
17.3756  326.375
17.405  326.9
17.4345  326.539
17.464  324.798
17.4935  324.844
17.523  324.118
17.5525  324.568
17.5819  325.87
17.6114  325.323
17.6409  324.679
17.6704  325.212
17.6999  324.807
17.7293  322.731
17.7588  323.121
17.7883  324.986
17.8178  325.641
17.8473  326.46
17.8767  326.786
17.9062  327.421
17.9357  329.283
17.9652  331.716
17.9947  332.708
18.0242  334.336
18.0536  336.745
18.0831  338.312
18.1126  338.702
18.1421  338.774
18.1716  338.546
18.201  338.518
18.2305  335.21
18.26  336.623
18.2895  335.565
18.319  334.246
18.3485  333.773
18.3779  333.357
18.4074  333.586
18.4369  336.704
18.4664  334.805
18.4959  333.169
18.5253  332.069
18.5548  332.184
18.5843  332.933
18.6138  331.439
18.6433  329.97
18.6728  330.319
18.7022  330.089
18.7317  328.806
18.7612  329.867
18.7907  329.026
18.8202  329.558
18.8496  329.964
18.8791  329.524
18.9086  327.586
18.9381  326.055
18.9676  327.023
18.997  325.975
19.0265  325.32
19.056  324.248
19.0855  322.421
19.115  324.029
19.1445  323.419
19.1739  322.666
19.2034  322.862
19.2329  322.627
19.2624  322.28
19.2919  321.339
19.3213  321.209
19.3508  321.663
19.3803  320.444
19.4098  319.718
19.4393  319.747
19.4688  321.015
19.4982  319.172
19.5277  320.647
19.5572  319.573
19.5867  319.069
19.6162  319.913
19.6456  319.646
19.6751  319.746
19.7046  320.064
19.7341  320.927
19.7636  319.766
19.7931  318.916
19.8225  320.679
19.852  321.734
19.8815  323.671
19.911  322.925
19.9405  322.399
19.9699  321.286
19.9994  321.416
20.0289  322.178
20.0584  323.38
20.0879  325.501
20.1173  325.887
20.1468  328.574
20.1763  331.185
20.2058  335.48
20.2353  341.602
20.2648  349.583
20.2942  360.96
20.3237  371.864
20.3532  379.459
20.3827  382.397
20.4122  378.506
20.4416  373.283
20.4711  363.861
20.5006  353.306
20.5301  344.814
20.5596  339.232
20.5891  334.922
20.6185  332.277
20.648  331.12
20.6775  330.066
20.707  330.256
20.7365  331.168
20.7659  332.548
20.7954  333.578
20.8249  331.736
20.8544  331.242
20.8839  330.652
20.9134  329.481
20.9428  328.761
20.9723  326.875
21.0018  326.844
21.0313  326.833
21.0608  326.107
21.0902  326.487
21.1197  326.451
21.1492  325.004
21.1787  323.923
21.2082  323.159
21.2377  324.353
21.2671  323.16
21.2966  322.237
21.3261  323.351
21.3556  322.393
21.3851  322.877
21.4145  321.531
21.444  321.979
21.4735  323.375
21.503  324.471
21.5325  323.486
21.5619  323.694
21.5914  323.527
21.6209  322.386
21.6504  323.174
21.6799  324.215
21.7094  323.966
21.7388  326.207
21.7683  326.218
21.7978  326.408
21.8273  327.275
21.8568  328.211
21.8862  328.161
21.9157  328.155
21.9452  328.59
21.9747  328.975
22.0042  327.934
22.0337  328.878
22.0631  326.932
22.0926  326.133
22.1221  326.246
22.1516  323.868
22.1811  324.088
22.2105  325.573
22.24  324.709
22.2695  327.552
22.299  330.253
22.3285  332.342
22.358  334.066
22.3874  335.599
22.4169  336.946
22.4464  336.622
22.4759  336.985
22.5054  337.119
22.5348  338.476
22.5643  339.611
22.5938  340.516
22.6233  341.775
22.6528  343.336
22.6822  344.372
22.7117  343.939
22.7412  344.061
22.7707  344.175
22.8002  341.275
22.8297  337.997
22.8591  334.311
22.8886  333.594
22.9181  334.904
22.9476  334.537
22.9771  333.257
23.0065  333.247
23.036  333.688
23.0655  334.77
23.095  333.068
23.1245  335.283
23.154  334.207
23.1834  337.151
23.2129  339.274
23.2424  342.92
23.2719  344.67
23.3014  347.141
23.3308  350.82
23.3603  355.745
23.3898  359.901
23.4193  364.787
23.4488  369.698
23.4783  371.445
23.5077  368.523
23.5372  367.746
23.5667  364.981
23.5962  360.278
23.6257  355.029
23.6551  353.587
23.6846  350.609
23.7141  348.169
23.7436  346.729
23.7731  344.253
23.8025  343.902
23.832  345.897
23.8615  345.016
23.891  343.781
23.9205  347.939
23.95  347.797
23.9794  350.457
24.0089  353.554
24.0384  354.572
24.0679  354.2
24.0974  356.422
24.1268  355.261
24.1563  354.019
24.1858  353.115
24.2153  351.187
24.2448  349.268
24.2743  349.2
24.3037  349.869
24.3332  351.714
24.3627  357.292
24.3922  359.918
24.4217  360.328
24.4511  360.278
24.4806  359.404
24.5101  354.67
24.5396  347.518
24.5691  345.213
24.5986  341.034
24.628  336.642
24.6575  335.222
24.687  333.081
24.7165  331.61
24.746  333.087
24.7754  332.13
24.8049  331.039
24.8344  330.737
24.8639  330.961
24.8934  331.159
24.9228  330.502
24.9523  330.487
24.9818  329.826
25.0113  329.766
25.0408  330.197
25.0703  330.694
25.0997  331.171
25.1292  331.542
25.1587  329.953
25.1882  330.834
25.2177  331.028
25.2471  331.103
25.2766  331.087
25.3061  331.952
25.3356  332.224
25.3651  333.889
25.3946  336.245
25.424  336.277
25.4535  335.956
25.483  339.345
25.5125  339.157
25.542  339.727
25.5714  342.126
25.6009  344.126
25.6304  343.251
25.6599  344.582
25.6894  345.562
25.7189  344.973
25.7483  345.331
25.7778  345.659
25.8073  346.628
25.8368  346.117
25.8663  344.147
25.8957  343.143
25.9252  340.987
25.9547  342.465
25.9842  341.365
26.0137  338.629
26.0431  338.096
26.0726  337.397
26.1021  335.828
26.1316  334.573
26.1611  332.453
26.1906  332.187
26.22  331.327
26.2495  330.963
26.279  330.84
26.3085  330.306
26.338  330.166
26.3674  330.856
26.3969  330.392
26.4264  330.524
26.4559  331.26
26.4854  332.445
26.5149  333.062
26.5443  332.967
26.5738  334.213
26.6033  337.723
26.6328  341.644
26.6623  344.965
26.6917  349.752
26.7212  351.73
26.7507  352.372
26.7802  350.164
26.8097  343.64
26.8392  339.294
26.8686  335.576
26.8981  333.603
26.9276  332.212
26.9571  330.923
26.9866  329.687
27.016  327.147
27.0455  327.428
27.075  327.927
27.1045  328.099
27.134  325.267
27.1634  326.236
27.1929  327.381
27.2224  325.505
27.2519  325.101
27.2814  326.682
27.3109  326.563
27.3403  325.446
27.3698  325.742
27.3993  327.166
27.4288  328.496
27.4583  327.272
27.4877  327.576
27.5172  327.407
27.5467  326.717
27.5762  328.58
27.6057  326.427
27.6352  329.147
27.6646  328.614
27.6941  330.889
27.7236  332.235
27.7531  335.425
27.7826  340.444
27.812  343.945
27.8415  327.601
27.871  328.706
27.9005  334.61
27.93  337.749
27.9595  337.874
27.9889  332.945
28.0184  330.742
28.0479  324.963
28.0774  325.368
28.1069  329.736
28.1363  333.951
28.1658  329.033
28.1953  325.378
28.2248  326.926
28.2543  325.879
28.2837  325.173
28.3132  324.787
28.3427  322.611
28.3722  323.314
28.4017  321.765
28.4312  321.84
28.4606  321.435
28.4901  319.814
28.5196  322.183
28.5491  321.584
28.5786  319.034
28.608  320.88
28.6375  321.396
28.667  319.996
28.6965  320.514
28.726  321.839
28.7555  319.13
28.7849  320.465
28.8144  319.815
28.8439  316.863
28.8734  319.325
28.9029  318.186
28.9323  316.841
28.9618  316.989
28.9913  318.016
29.0208  315.646
29.0503  315.784
29.0798  315.321
29.1092  314.556
29.1387  314.526
29.1682  314.832
29.1977  314.595
29.2272  314.548
29.2566  315.945
29.2861  315.41
29.3156  314.162
29.3451  313.734
29.3746  313.779
29.404  314.846
29.4335  313.871
29.463  313.767
29.4925  313.952
29.522  314.286
29.5515  314.567
29.5809  313.639
29.6104  313.017
29.6399  314.259
29.6694  315.464
29.6989  315.321
29.7283  313.426
29.7578  313.241
29.7873  312.646
29.8168  311.412
29.8463  309.914
29.8758  307.405
29.9052  304.237
29.9347  300.388
29.9642  296.953
29.9937  294.236
30.0232  290.847
30.0526  287.806
30.0821  283.18
30.1116  280.487
30.1411  276.361
30.1706  270.499
30.2001  264.541
30.2295  258.22
30.259  251.868
30.2885  247.212
30.318  241.746
30.3475  238.097
30.3769  234.324
30.4064  232.5
30.4359  229.826
30.4654  225.055
30.4949  223.274
30.5243  220.133
30.5538  217.768
30.5833  212.277
30.6128  210.292
30.6423  207.182
30.6718  203.385
30.7012  200.502
30.7307  197.407
30.7602  193.006
30.7897  189.198
30.8192  185.467
30.8486  181.469
30.8781  177.989
30.9076  175.691
30.9371  171.82
30.9666  168.343
30.9961  164.104
31.0255  160.287
31.055  157.236
31.0845  152.706
31.114  149.674
31.1435  146.476
31.1729  142.796
31.2024  140.719
31.2319  138.105
31.2614  133.868
31.2909  130.381
31.3204  127.078
31.3498  124.787
31.3793  119.945
31.4088  115.838
31.4383  114.165
31.4678  110.701
31.4972  107.176
31.5267  103.063
31.5562  100.047
31.5857  97.378
31.6152  95.5013
31.6446  91.14
31.6741  88.8036
31.7036  86.8546
31.7331  84.3263
31.7626  81.8323
31.7921  78.4681
31.8215  73.1741
31.851  74.0629
31.8805  69.0186
31.91  64.9837
31.9395  63.1923
31.9689  65.3566
31.9984  54.9249
32.0279  55.4294
32.0574  67.4485
32.0869  52.4413